rt,trial_type,trial_index,trial_number,plugin_version,time_elapsed,random_id,participant_id,stimulus,response,Category,Concept,T1,T2,CorrectAnswer,correct,is_right,reflection_1,reflection_2
5078,html-keyboard-response,6,1,2.0.0,25058,p03mqyeeyqu,seal,<b><font size=6>Mirrors reflect sound.</font></b>,z,Waves,Reflection,FALSE,TRUE,TRUE,TRUE,1,NA,no
4744,html-keyboard-response,7,2,2.0.0,30303,p03mqyeeyqu,seal,<b><font size=6>Sounds can be dead or alive.</font></b>,z,Waves,Sound,FALSE,FALSE,FALSE,FALSE,0,NA,no
1860,html-keyboard-response,8,3,2.0.0,32664,p03mqyeeyqu,seal,<b><font size=6>Sounds can be near or far.</font></b>,z,Waves,Sound,TRUE,FALSE,FALSE,FALSE,0,NA,no
1534,html-keyboard-response,9,4,2.0.0,34700,p03mqyeeyqu,seal,<b><font size=6>Sound travels through metal.</font></b>,z,Waves,Propagation,FALSE,TRUE,TRUE,TRUE,1,NA,no
3237,html-keyboard-response,10,5,2.0.0,38439,p03mqyeeyqu,seal,<b><font size=6>Shadows contain all colors of light.</font></b>,z,Waves,Light,FALSE,FALSE,FALSE,FALSE,0,NA,no
2881,html-keyboard-response,11,6,2.0.0,41822,p03mqyeeyqu,seal,<b><font size=6>Red objects absorb red light.</font></b>,z,Waves,Color,TRUE,FALSE,FALSE,FALSE,0,NA,no
2898,html-keyboard-response,12,7,2.0.0,45222,p03mqyeeyqu,seal,<b><font size=6>Sounds can be direct or reflected.</font></b>,z,Waves,Sound,FALSE,TRUE,TRUE,TRUE,1,NA,no
1355,html-keyboard-response,13,8,2.0.0,47078,p03mqyeeyqu,seal,<b><font size=6>Sounds can be loud or quiet.</font></b>,z,Waves,Sound,TRUE,TRUE,TRUE,TRUE,1,NA,no
2083,html-keyboard-response,14,9,2.0.0,49662,p03mqyeeyqu,seal,<b><font size=6>Red objects reflect red light.</font></b>,z,Waves,Color,TRUE,TRUE,TRUE,TRUE,1,NA,no
2668,html-keyboard-response,15,10,2.0.0,52832,p03mqyeeyqu,seal,<b><font size=6>Sound travels through a vacuum.</font></b>,m,Waves,Propagation,TRUE,FALSE,FALSE,TRUE,1,NA,no
1116,html-keyboard-response,16,11,2.0.0,54450,p03mqyeeyqu,seal,<b><font size=6>Sound travels through air.</font></b>,z,Waves,Propagation,TRUE,TRUE,TRUE,TRUE,1,NA,no
3025,html-keyboard-response,17,12,2.0.0,57976,p03mqyeeyqu,seal,<b><font size=6>Foam reflects sound.</font></b>,z,Waves,Reflection,FALSE,FALSE,FALSE,FALSE,0,NA,no
2599,html-keyboard-response,18,13,2.0.0,61077,p03mqyeeyqu,seal,<b><font size=6>White light contains all colors of light.</font></b>,z,Waves,Light,FALSE,TRUE,TRUE,TRUE,1,NA,no
5096,html-keyboard-response,19,14,2.0.0,66675,p03mqyeeyqu,seal,<b><font size=6>Red objects absorb blue light.</font></b>,m,Waves,Color,FALSE,TRUE,TRUE,FALSE,0,NA,no
1666,html-keyboard-response,20,15,2.0.0,68843,p03mqyeeyqu,seal,<b><font size=6>Red objects reflect blue light.</font></b>,m,Waves,Color,FALSE,FALSE,FALSE,TRUE,1,NA,no
1073,html-keyboard-response,21,16,2.0.0,70416,p03mqyeeyqu,seal,<b><font size=6>Mirrors reflect light.</font></b>,z,Waves,Reflection,TRUE,TRUE,TRUE,TRUE,1,NA,no
1290,html-keyboard-response,22,17,2.0.0,72208,p03mqyeeyqu,seal,<b><font size=6>Black objects reflect all colors of light.</font></b>,z,Waves,Light,TRUE,FALSE,FALSE,FALSE,0,NA,no
1524,html-keyboard-response,23,18,2.0.0,74234,p03mqyeeyqu,seal,<b><font size=6>Sound travels through foam.</font></b>,z,Waves,Propagation,FALSE,FALSE,FALSE,FALSE,0,NA,no
1478,html-keyboard-response,24,19,2.0.0,76213,p03mqyeeyqu,seal,<b><font size=6>Prisms reflect light.</font></b>,z,Waves,Reflection,TRUE,FALSE,FALSE,FALSE,0,NA,no
7121,html-keyboard-response,25,20,2.0.0,83835,p03mqyeeyqu,seal,<b><font size=6>Rainbows contain all colors of light.</font></b>,z,Waves,Light,TRUE,TRUE,TRUE,TRUE,1,NA,no
2092,html-keyboard-response,27,21,2.0.0,88632,p03mqyeeyqu,seal,<b><font size=6>Gravity has heat.</font></b>,z,Thermodynamics,Heat,FALSE,FALSE,FALSE,FALSE,0,NA,no
1621,html-keyboard-response,28,22,2.0.0,90755,p03mqyeeyqu,seal,<b><font size=6>Cold objects transfer heat to warm objects.</font></b>,z,Thermodynamics,Heat transfer,FALSE,FALSE,FALSE,FALSE,0,NA,no
3313,html-keyboard-response,29,23,2.0.0,94570,p03mqyeeyqu,seal,<b><font size=6>Boiling water has a lower temperature than steam.</font></b>,z,Thermodynamics,Temperature,FALSE,TRUE,TRUE,TRUE,1,NA,no
1679,html-keyboard-response,30,24,2.0.0,96750,p03mqyeeyqu,seal,<b><font size=6>Water transfers heat to steam.</font></b>,z,Thermodynamics,Heat transfer,TRUE,FALSE,FALSE,FALSE,0,NA,no
2436,html-keyboard-response,31,25,2.0.0,99688,p03mqyeeyqu,seal,<b><font size=6>Ice has a lower temperature than water.</font></b>,z,Thermodynamics,Temperature,TRUE,TRUE,TRUE,TRUE,1,NA,no
2968,html-keyboard-response,32,26,2.0.0,103158,p03mqyeeyqu,seal,<b><font size=6>Steam has a lower temperature than ice.</font></b>,m,Thermodynamics,Temperature,FALSE,FALSE,FALSE,TRUE,1,NA,no
1133,html-keyboard-response,33,27,2.0.0,104793,p03mqyeeyqu,seal,<b><font size=6>The sun has heat.</font></b>,z,Thermodynamics,Heat,TRUE,TRUE,TRUE,TRUE,1,NA,no
1156,html-keyboard-response,34,28,2.0.0,106451,p03mqyeeyqu,seal,<b><font size=6>Ovens produce heat.</font></b>,z,Thermodynamics,Heat source,TRUE,TRUE,TRUE,TRUE,1,NA,no
1132,html-keyboard-response,35,29,2.0.0,108084,p03mqyeeyqu,seal,<b><font size=6>Coats produce heat.</font></b>,z,Thermodynamics,Heat source,TRUE,FALSE,FALSE,FALSE,0,NA,no
3887,html-keyboard-response,36,30,2.0.0,112472,p03mqyeeyqu,seal,<b><font size=6>Heat increases an object's weight.</font></b>,z,Thermodynamics,Thermal expansion,TRUE,FALSE,FALSE,FALSE,0,NA,no
1855,html-keyboard-response,37,31,2.0.0,114829,p03mqyeeyqu,seal,<b><font size=6>Heat increases an object's color.</font></b>,z,Thermodynamics,Thermal expansion,FALSE,FALSE,FALSE,FALSE,0,NA,no
3184,html-keyboard-response,38,32,2.0.0,118514,p03mqyeeyqu,seal,<b><font size=6>Ice has heat.</font></b>,m,Thermodynamics,Heat,FALSE,TRUE,TRUE,FALSE,0,NA,no
2413,html-keyboard-response,39,33,2.0.0,121429,p03mqyeeyqu,seal,<b><font size=6>Heat increases an object's size.</font></b>,z,Thermodynamics,Thermal expansion,FALSE,TRUE,TRUE,TRUE,1,NA,no
12289,html-keyboard-response,40,34,2.0.0,134221,p03mqyeeyqu,seal,<b><font size=6>Water transfers heat to ice.</font></b>,z,Thermodynamics,Heat transfer,TRUE,TRUE,TRUE,TRUE,1,NA,no
4460,html-keyboard-response,41,35,2.0.0,139183,p03mqyeeyqu,seal,<b><font size=6>Heat increases an object's temperature.</font></b>,z,Thermodynamics,Thermal expansion,TRUE,TRUE,TRUE,TRUE,1,NA,no
1252,html-keyboard-response,42,36,2.0.0,140937,p03mqyeeyqu,seal,<b><font size=6>Pressure produces heat.</font></b>,z,Thermodynamics,Heat source,FALSE,TRUE,TRUE,TRUE,1,NA,no
1581,html-keyboard-response,43,37,2.0.0,143020,p03mqyeeyqu,seal,<b><font size=6>Rain produces heat.</font></b>,m,Thermodynamics,Heat source,FALSE,FALSE,FALSE,TRUE,1,NA,no
2768,html-keyboard-response,44,38,2.0.0,146289,p03mqyeeyqu,seal,<b><font size=6>Two cups of ice have a lower temperature than one.</font></b>,z,Thermodynamics,Temperature,TRUE,FALSE,FALSE,FALSE,0,NA,no
1111,html-keyboard-response,45,39,2.0.0,147902,p03mqyeeyqu,seal,<b><font size=6>Atoms have heat.</font></b>,z,Thermodynamics,Heat,TRUE,FALSE,FALSE,FALSE,0,NA,no
3330,html-keyboard-response,46,40,2.0.0,151733,p03mqyeeyqu,seal,<b><font size=6>Cold objects transfer heat to even colder objects.</font></b>,m,Thermodynamics,Heat transfer,FALSE,TRUE,TRUE,FALSE,0,NA,no
5433,html-keyboard-response,48,41,2.0.0,159872,p03mqyeeyqu,seal,<b><font size=6>Clouds can die.</font></b>,z,Physiology,Death,TRUE,FALSE,FALSE,FALSE,0,NA,no
932,html-keyboard-response,49,42,2.0.0,161306,p03mqyeeyqu,seal,<b><font size=6>Coral is alive.</font></b>,z,Physiology,Life,FALSE,TRUE,TRUE,TRUE,1,NA,no
1077,html-keyboard-response,50,43,2.0.0,162885,p03mqyeeyqu,seal,<b><font size=6>Mushrooms can die.</font></b>,z,Physiology,Death,FALSE,TRUE,TRUE,TRUE,1,NA,no
1352,html-keyboard-response,51,44,2.0.0,164739,p03mqyeeyqu,seal,<b><font size=6>Ferns can reproduce.</font></b>,z,Physiology,Reproduction,FALSE,TRUE,TRUE,TRUE,1,NA,no
767,html-keyboard-response,52,45,2.0.0,166007,p03mqyeeyqu,seal,<b><font size=6>Tigers can reproduce.</font></b>,z,Physiology,Reproduction,TRUE,TRUE,TRUE,TRUE,1,NA,no
1052,html-keyboard-response,53,46,2.0.0,167561,p03mqyeeyqu,seal,<b><font size=6>Turtles can die.</font></b>,z,Physiology,Death,TRUE,TRUE,TRUE,TRUE,1,NA,no
1396,html-keyboard-response,54,47,2.0.0,169459,p03mqyeeyqu,seal,<b><font size=6>Chairs can reproduce.</font></b>,m,Physiology,Reproduction,FALSE,FALSE,FALSE,TRUE,1,NA,no
1592,html-keyboard-response,55,48,2.0.0,171553,p03mqyeeyqu,seal,<b><font size=6>Plants turn food into energy.</font></b>,z,Physiology,Metabolism,TRUE,FALSE,FALSE,FALSE,0,NA,no
2074,html-keyboard-response,56,49,2.0.0,174129,p03mqyeeyqu,seal,<b><font size=6>A baby can be an uncle or an aunt.</font></b>,z,Physiology,Kinship,FALSE,TRUE,TRUE,TRUE,1,NA,no
3707,html-keyboard-response,57,50,2.0.0,178338,p03mqyeeyqu,seal,<b><font size=6>Bacteria turn food into energy.</font></b>,z,Physiology,Metabolism,FALSE,TRUE,TRUE,TRUE,1,NA,no
1047,html-keyboard-response,58,51,2.0.0,179887,p03mqyeeyqu,seal,<b><font size=6>Screwdrivers can die.</font></b>,m,Physiology,Death,FALSE,FALSE,FALSE,TRUE,1,NA,no
5110,html-keyboard-response,59,52,2.0.0,185498,p03mqyeeyqu,seal,<b><font size=6>Rocks turn food into energy.</font></b>,m,Physiology,Metabolism,FALSE,FALSE,FALSE,TRUE,1,NA,no
2192,html-keyboard-response,60,53,2.0.0,188191,p03mqyeeyqu,seal,<b><font size=6>A baby can be a mother or a father.</font></b>,m,Physiology,Kinship,FALSE,FALSE,FALSE,TRUE,1,NA,no
1388,html-keyboard-response,61,54,2.0.0,190081,p03mqyeeyqu,seal,<b><font size=6>People turn food into energy.</font></b>,z,Physiology,Metabolism,TRUE,TRUE,TRUE,TRUE,1,NA,no
683,html-keyboard-response,62,55,2.0.0,191266,p03mqyeeyqu,seal,<b><font size=6>The sun is alive.</font></b>,z,Physiology,Life,TRUE,FALSE,FALSE,FALSE,0,NA,no
837,html-keyboard-response,63,56,2.0.0,192605,p03mqyeeyqu,seal,<b><font size=6>Caterpillars can reproduce.</font></b>,z,Physiology,Reproduction,TRUE,FALSE,FALSE,FALSE,0,NA,no
1451,html-keyboard-response,64,57,2.0.0,194558,p03mqyeeyqu,seal,<b><font size=6>Rocks are alive.</font></b>,m,Physiology,Life,FALSE,FALSE,FALSE,TRUE,1,NA,no
1186,html-keyboard-response,65,58,2.0.0,196246,p03mqyeeyqu,seal,<b><font size=6>A baby can be a niece or a nephew.</font></b>,z,Physiology,Kinship,TRUE,TRUE,TRUE,TRUE,1,NA,no
2547,html-keyboard-response,66,59,2.0.0,199295,p03mqyeeyqu,seal,<b><font size=6>A baby can be identical to an older sibling.</font></b>,m,Physiology,Kinship,TRUE,FALSE,FALSE,TRUE,1,NA,no
2276,html-keyboard-response,67,60,2.0.0,202073,p03mqyeeyqu,seal,<b><font size=6>Fish are alive.</font></b>,z,Physiology,Life,TRUE,TRUE,TRUE,TRUE,1,NA,no
2768,html-keyboard-response,69,61,2.0.0,207546,p03mqyeeyqu,seal,<b><font size=6>The sun revolves around the earth.</font></b>,m,Astronomy,Solar system,TRUE,FALSE,FALSE,TRUE,1,NA,no
8064,html-keyboard-response,70,62,2.0.0,216112,p03mqyeeyqu,seal,<b><font size=6>Phases of the moon are caused by the earth's shadow.</font></b>,z,Astronomy,Lunar phase,TRUE,FALSE,FALSE,FALSE,0,NA,no
1373,html-keyboard-response,71,63,2.0.0,217987,p03mqyeeyqu,seal,<b><font size=6>Phases of the moon are caused by the moon's orbit.</font></b>,z,Astronomy,Lunar phase,FALSE,TRUE,TRUE,TRUE,1,NA,no
2339,html-keyboard-response,72,64,2.0.0,220827,p03mqyeeyqu,seal,<b><font size=6>Planets are more massive than moons.</font></b>,z,Astronomy,Planet,TRUE,TRUE,TRUE,TRUE,1,NA,no
2106,html-keyboard-response,73,65,2.0.0,223436,p03mqyeeyqu,seal,<b><font size=6>The sun produces sound.</font></b>,z,Astronomy,Star,FALSE,FALSE,FALSE,FALSE,0,NA,no
2978,html-keyboard-response,74,66,2.0.0,226916,p03mqyeeyqu,seal,<b><font size=6>The moon produces light.</font></b>,m,Astronomy,Star,TRUE,FALSE,FALSE,TRUE,1,NA,no
3621,html-keyboard-response,75,67,2.0.0,231039,p03mqyeeyqu,seal,<b><font size=6>Stars are more massive than planets.</font></b>,z,Astronomy,Planet,FALSE,TRUE,TRUE,TRUE,1,NA,no
2337,html-keyboard-response,76,68,2.0.0,233878,p03mqyeeyqu,seal,<b><font size=6>Phases of the moon are caused by changes in illumination.</font></b>,z,Astronomy,Lunar phase,TRUE,TRUE,TRUE,TRUE,1,NA,no
2608,html-keyboard-response,77,69,2.0.0,236987,p03mqyeeyqu,seal,<b><font size=6>The earth's rotation causes the seasons.</font></b>,z,Astronomy,Season,FALSE,FALSE,FALSE,FALSE,0,NA,no
2178,html-keyboard-response,78,70,2.0.0,239666,p03mqyeeyqu,seal,<b><font size=6>The sun revolves around the moon.</font></b>,m,Astronomy,Solar system,FALSE,FALSE,FALSE,TRUE,1,NA,no
2312,html-keyboard-response,79,71,2.0.0,242479,p03mqyeeyqu,seal,<b><font size=6>Planets are more massive than stars.</font></b>,z,Astronomy,Planet,TRUE,FALSE,FALSE,FALSE,0,NA,no
1869,html-keyboard-response,80,72,2.0.0,244850,p03mqyeeyqu,seal,<b><font size=6>A change in overall sunlight causes the seasons.</font></b>,z,Astronomy,Season,TRUE,TRUE,TRUE,TRUE,1,NA,no
1479,html-keyboard-response,81,73,2.0.0,246831,p03mqyeeyqu,seal,<b><font size=6>The earth revolves around the sun.</font></b>,z,Astronomy,Solar system,FALSE,TRUE,TRUE,TRUE,1,NA,no
1195,html-keyboard-response,82,74,2.0.0,248527,p03mqyeeyqu,seal,<b><font size=6>The sun produces light.</font></b>,z,Astronomy,Star,TRUE,TRUE,TRUE,TRUE,1,NA,no
1661,html-keyboard-response,83,75,2.0.0,250690,p03mqyeeyqu,seal,<b><font size=6>Phases of the moon are caused by clouds.</font></b>,m,Astronomy,Lunar phase,FALSE,FALSE,FALSE,TRUE,1,NA,no
3264,html-keyboard-response,84,76,2.0.0,254455,p03mqyeeyqu,seal,<b><font size=6>The earth's distance from the sun causes the seasons.</font></b>,z,Astronomy,Season,TRUE,FALSE,FALSE,FALSE,0,NA,no
1390,html-keyboard-response,85,77,2.0.0,256347,p03mqyeeyqu,seal,<b><font size=6>The moon revolves around the earth.</font></b>,z,Astronomy,Solar system,TRUE,TRUE,TRUE,TRUE,1,NA,no
1159,html-keyboard-response,86,78,2.0.0,258008,p03mqyeeyqu,seal,<b><font size=6>The sun produces gravity.</font></b>,z,Astronomy,Star,FALSE,TRUE,TRUE,TRUE,1,NA,no
2098,html-keyboard-response,87,79,2.0.0,260608,p03mqyeeyqu,seal,<b><font size=6>The earth's tilt causes the seasons.</font></b>,z,Astronomy,Season,FALSE,TRUE,TRUE,TRUE,1,NA,no
2415,html-keyboard-response,88,80,2.0.0,263524,p03mqyeeyqu,seal,<b><font size=6>Asteroids are more massive than planets.</font></b>,m,Astronomy,Planet,FALSE,FALSE,FALSE,TRUE,1,NA,no
5744,html-keyboard-response,90,81,2.0.0,271974,p03mqyeeyqu,seal,<b><font size=6>Atoms are weightless.</font></b>,z,Matter,Atom,TRUE,FALSE,FALSE,FALSE,0,NA,no
2539,html-keyboard-response,91,82,2.0.0,275015,p03mqyeeyqu,seal,<b><font size=6>Steel is denser than foam.</font></b>,z,Matter,Density,TRUE,TRUE,TRUE,TRUE,1,NA,no
1757,html-keyboard-response,92,83,2.0.0,277275,p03mqyeeyqu,seal,<b><font size=6>Numbers are composed of matter.</font></b>,m,Matter,Mass,FALSE,FALSE,FALSE,TRUE,1,NA,no
1705,html-keyboard-response,93,84,2.0.0,279481,p03mqyeeyqu,seal,<b><font size=6>An idea can be cut in half.</font></b>,z,Matter,Divisibility,FALSE,FALSE,FALSE,FALSE,0,NA,no
13886,html-keyboard-response,94,85,2.0.0,293868,p03mqyeeyqu,seal,<b><font size=6>A pound of steel weighs more than a ton of steel.</font></b>,z,Matter,Weight,FALSE,FALSE,FALSE,FALSE,0,NA,no
1599,html-keyboard-response,95,86,2.0.0,295970,p03mqyeeyqu,seal,<b><font size=6>Atoms are mostly empty space.</font></b>,m,Matter,Atom,FALSE,TRUE,TRUE,FALSE,0,NA,no
1565,html-keyboard-response,96,87,2.0.0,298036,p03mqyeeyqu,seal,<b><font size=6>A shadow can be cut in half.</font></b>,m,Matter,Divisibility,TRUE,FALSE,FALSE,TRUE,1,NA,no
1201,html-keyboard-response,97,88,2.0.0,299739,p03mqyeeyqu,seal,<b><font size=6>A grain of sand can be cut in half.</font></b>,z,Matter,Divisibility,FALSE,TRUE,TRUE,TRUE,1,NA,no
790,html-keyboard-response,98,89,2.0.0,301031,p03mqyeeyqu,seal,<b><font size=6>A log can be cut in half.</font></b>,z,Matter,Divisibility,TRUE,TRUE,TRUE,TRUE,1,NA,no
1161,html-keyboard-response,99,90,2.0.0,302694,p03mqyeeyqu,seal,<b><font size=6>Atoms are visible to the naked eye.</font></b>,m,Matter,Atom,FALSE,FALSE,FALSE,TRUE,1,NA,no
1150,html-keyboard-response,100,91,2.0.0,304347,p03mqyeeyqu,seal,<b><font size=6>Rocks are composed of matter.</font></b>,z,Matter,Mass,TRUE,TRUE,TRUE,TRUE,1,NA,no
1458,html-keyboard-response,101,92,2.0.0,306305,p03mqyeeyqu,seal,<b><font size=6>Ice is denser than water.</font></b>,z,Matter,Density,TRUE,FALSE,FALSE,FALSE,0,NA,no
1930,html-keyboard-response,102,93,2.0.0,308737,p03mqyeeyqu,seal,<b><font size=6>A cold penny is denser than a hot penny.</font></b>,m,Matter,Density,FALSE,TRUE,TRUE,FALSE,0,NA,no
1821,html-keyboard-response,103,94,2.0.0,311059,p03mqyeeyqu,seal,<b><font size=6>Foam is denser than brick.</font></b>,m,Matter,Density,FALSE,FALSE,FALSE,TRUE,1,NA,no
2228,html-keyboard-response,104,95,2.0.0,313789,p03mqyeeyqu,seal,<b><font size=6>A liter of water weighs more than a liter of ice.</font></b>,m,Matter,Weight,FALSE,TRUE,TRUE,FALSE,0,NA,no
1645,html-keyboard-response,105,96,2.0.0,315936,p03mqyeeyqu,seal,<b><font size=6>A liter of water weighs more than a liter of air.</font></b>,z,Matter,Weight,TRUE,TRUE,TRUE,TRUE,1,NA,no
1991,html-keyboard-response,106,97,2.0.0,318429,p03mqyeeyqu,seal,<b><font size=6>Fire is composed of matter.</font></b>,z,Matter,Mass,TRUE,FALSE,FALSE,FALSE,0,NA,no
1293,html-keyboard-response,107,98,2.0.0,320224,p03mqyeeyqu,seal,<b><font size=6>Atoms are the constituents of matter.</font></b>,z,Matter,Atom,TRUE,TRUE,TRUE,TRUE,1,NA,no
1959,html-keyboard-response,108,99,2.0.0,322685,p03mqyeeyqu,seal,<b><font size=6>A pound of steel weighs more than a pound of feathers.</font></b>,z,Matter,Weight,TRUE,FALSE,FALSE,FALSE,0,NA,no
1801,html-keyboard-response,109,100,2.0.0,324989,p03mqyeeyqu,seal,<b><font size=6>Air is composed of matter.</font></b>,z,Matter,Mass,FALSE,TRUE,TRUE,TRUE,1,NA,no
7956,html-keyboard-response,6,1,2.0.0,23973,p0gn130e5rf,parrot,<b><font size=6>Black objects reflect all colors of light.</font></b>,z,Waves,Light,TRUE,FALSE,FALSE,FALSE,0,NA,Nope
1591,html-keyboard-response,7,2,2.0.0,26067,p0gn130e5rf,parrot,<b><font size=6>Shadows contain all colors of light.</font></b>,z,Waves,Light,FALSE,FALSE,FALSE,FALSE,0,NA,Nope
2945,html-keyboard-response,8,3,2.0.0,29514,p0gn130e5rf,parrot,<b><font size=6>Sounds can be near or far.</font></b>,z,Waves,Sound,TRUE,FALSE,FALSE,FALSE,0,NA,Nope
1978,html-keyboard-response,9,4,2.0.0,31994,p0gn130e5rf,parrot,<b><font size=6>Foam reflects sound.</font></b>,m,Waves,Reflection,FALSE,FALSE,FALSE,TRUE,1,NA,Nope
1198,html-keyboard-response,10,5,2.0.0,33695,p0gn130e5rf,parrot,<b><font size=6>Mirrors reflect light.</font></b>,z,Waves,Reflection,TRUE,TRUE,TRUE,TRUE,1,NA,Nope
2222,html-keyboard-response,11,6,2.0.0,36419,p0gn130e5rf,parrot,<b><font size=6>Sounds can be loud or quiet.</font></b>,z,Waves,Sound,TRUE,TRUE,TRUE,TRUE,1,NA,Nope
1747,html-keyboard-response,12,7,2.0.0,38668,p0gn130e5rf,parrot,<b><font size=6>Mirrors reflect sound.</font></b>,m,Waves,Reflection,FALSE,TRUE,TRUE,FALSE,0,NA,Nope
1837,html-keyboard-response,13,8,2.0.0,41008,p0gn130e5rf,parrot,<b><font size=6>Sounds can be dead or alive.</font></b>,m,Waves,Sound,FALSE,FALSE,FALSE,TRUE,1,NA,Nope
1471,html-keyboard-response,14,9,2.0.0,42982,p0gn130e5rf,parrot,<b><font size=6>Sound travels through foam.</font></b>,z,Waves,Propagation,FALSE,FALSE,FALSE,FALSE,0,NA,Nope
2035,html-keyboard-response,15,10,2.0.0,45519,p0gn130e5rf,parrot,<b><font size=6>Prisms reflect light.</font></b>,z,Waves,Reflection,TRUE,FALSE,FALSE,FALSE,0,NA,Nope
3221,html-keyboard-response,16,11,2.0.0,49242,p0gn130e5rf,parrot,<b><font size=6>White light contains all colors of light.</font></b>,z,Waves,Light,FALSE,TRUE,TRUE,TRUE,1,NA,Nope
4975,html-keyboard-response,17,12,2.0.0,54719,p0gn130e5rf,parrot,<b><font size=6>Rainbows contain all colors of light.</font></b>,z,Waves,Light,TRUE,TRUE,TRUE,TRUE,1,NA,Nope
1147,html-keyboard-response,18,13,2.0.0,56368,p0gn130e5rf,parrot,<b><font size=6>Sound travels through air.</font></b>,z,Waves,Propagation,TRUE,TRUE,TRUE,TRUE,1,NA,Nope
2324,html-keyboard-response,19,14,2.0.0,59193,p0gn130e5rf,parrot,<b><font size=6>Red objects absorb blue light.</font></b>,m,Waves,Color,FALSE,TRUE,TRUE,FALSE,0,NA,Nope
1951,html-keyboard-response,20,15,2.0.0,61646,p0gn130e5rf,parrot,<b><font size=6>Red objects reflect red light.</font></b>,z,Waves,Color,TRUE,TRUE,TRUE,TRUE,1,NA,Nope
5483,html-keyboard-response,21,16,2.0.0,67631,p0gn130e5rf,parrot,<b><font size=6>Sound travels through a vacuum.</font></b>,z,Waves,Propagation,TRUE,FALSE,FALSE,FALSE,0,NA,Nope
2972,html-keyboard-response,22,17,2.0.0,71104,p0gn130e5rf,parrot,<b><font size=6>Red objects reflect blue light.</font></b>,m,Waves,Color,FALSE,FALSE,FALSE,TRUE,1,NA,Nope
1894,html-keyboard-response,23,18,2.0.0,73500,p0gn130e5rf,parrot,<b><font size=6>Sound travels through metal.</font></b>,z,Waves,Propagation,FALSE,TRUE,TRUE,TRUE,1,NA,Nope
2389,html-keyboard-response,24,19,2.0.0,76392,p0gn130e5rf,parrot,<b><font size=6>Red objects absorb red light.</font></b>,z,Waves,Color,TRUE,FALSE,FALSE,FALSE,0,NA,Nope
2257,html-keyboard-response,25,20,2.0.0,79150,p0gn130e5rf,parrot,<b><font size=6>Sounds can be direct or reflected.</font></b>,z,Waves,Sound,FALSE,TRUE,TRUE,TRUE,1,NA,Nope
2912,html-keyboard-response,27,21,2.0.0,83246,p0gn130e5rf,parrot,<b><font size=6>Most organisms are adapted to their environment.</font></b>,Z,Evolution,Selection,TRUE,TRUE,TRUE,FALSE,0,NA,Nope
2198,html-keyboard-response,28,22,2.0.0,85948,p0gn130e5rf,parrot,<b><font size=6>Most organisms die before leaving offspring.</font></b>,M,Evolution,Selection,FALSE,TRUE,TRUE,FALSE,0,NA,Nope
1891,html-keyboard-response,29,23,2.0.0,88340,p0gn130e5rf,parrot,<b><font size=6>Most organisms have plenty to eat.</font></b>,m,Evolution,Selection,TRUE,FALSE,FALSE,TRUE,1,NA,Nope
1127,html-keyboard-response,30,24,2.0.0,89969,p0gn130e5rf,parrot,<b><font size=6>Biological species evolve.</font></b>,z,Evolution,Adaptation,TRUE,TRUE,TRUE,TRUE,1,NA,Nope
5570,html-keyboard-response,31,25,2.0.0,96040,p0gn130e5rf,parrot,<b><font size=6>Individual organisms evolve.</font></b>,z,Evolution,Adaptation,TRUE,FALSE,FALSE,FALSE,0,NA,Nope
3891,html-keyboard-response,32,26,2.0.0,100434,p0gn130e5rf,parrot,<b><font size=6>Evolution requires long periods of time.</font></b>,z,Evolution,Variation,TRUE,FALSE,FALSE,FALSE,0,NA,Nope
5825,html-keyboard-response,33,27,2.0.0,106761,p0gn130e5rf,parrot,<b><font size=6>Evolution requires differential survival.</font></b>,z,Evolution,Variation,TRUE,TRUE,TRUE,TRUE,1,NA,Nope
1602,html-keyboard-response,34,28,2.0.0,108864,p0gn130e5rf,parrot,<b><font size=6>Humans are descended from sea-dwelling creatures.</font></b>,z,Evolution,Phylogeny,FALSE,TRUE,TRUE,TRUE,1,NA,Nope
1389,html-keyboard-response,35,29,2.0.0,110755,p0gn130e5rf,parrot,<b><font size=6>Humans are descended from tree-dwelling creatures.</font></b>,z,Evolution,Phylogeny,TRUE,TRUE,TRUE,TRUE,1,NA,Nope
2290,html-keyboard-response,36,30,2.0.0,113546,p0gn130e5rf,parrot,<b><font size=6>Apes are more closely related to monkeys than humans.</font></b>,m,Evolution,Common ancestry,TRUE,FALSE,FALSE,TRUE,1,NA,Nope
1021,html-keyboard-response,37,31,2.0.0,115070,p0gn130e5rf,parrot,<b><font size=6>Humans are descended from chimpanzees.</font></b>,z,Evolution,Phylogeny,TRUE,FALSE,FALSE,FALSE,0,NA,Nope
2055,html-keyboard-response,38,32,2.0.0,117627,p0gn130e5rf,parrot,<b><font size=6>Humans are more closely related to apes than monkeys.</font></b>,z,Evolution,Common ancestry,TRUE,TRUE,TRUE,TRUE,1,NA,Nope
7946,html-keyboard-response,39,33,2.0.0,126075,p0gn130e5rf,parrot,<b><font size=6>Humans are descended from plants.</font></b>,m,Evolution,Phylogeny,FALSE,FALSE,FALSE,TRUE,1,NA,Nope
3556,html-keyboard-response,40,34,2.0.0,130133,p0gn130e5rf,parrot,<b><font size=6>Evolution requires climate stability.</font></b>,m,Evolution,Variation,FALSE,FALSE,FALSE,TRUE,1,NA,Nope
1554,html-keyboard-response,41,35,2.0.0,132190,p0gn130e5rf,parrot,<b><font size=6>Inanimate objects evolve.</font></b>,m,Evolution,Adaptation,FALSE,FALSE,FALSE,TRUE,1,NA,Nope
1822,html-keyboard-response,42,36,2.0.0,134514,p0gn130e5rf,parrot,<b><font size=6>Whales are more closely related to humans than fish.</font></b>,m,Evolution,Common ancestry,FALSE,TRUE,TRUE,FALSE,0,NA,Nope
1786,html-keyboard-response,43,37,2.0.0,136802,p0gn130e5rf,parrot,<b><font size=6>Evolution requires within-species variation.</font></b>,z,Evolution,Variation,FALSE,TRUE,TRUE,TRUE,1,NA,Nope
1750,html-keyboard-response,44,38,2.0.0,139054,p0gn130e5rf,parrot,<b><font size=6>Computer viruses evolve.</font></b>,z,Evolution,Adaptation,FALSE,TRUE,TRUE,TRUE,1,NA,Nope
1849,html-keyboard-response,45,39,2.0.0,141405,p0gn130e5rf,parrot,<b><font size=6>Whales are more closely related to plants than fish.</font></b>,m,Evolution,Common ancestry,FALSE,FALSE,FALSE,TRUE,1,NA,Nope
2226,html-keyboard-response,46,40,2.0.0,144132,p0gn130e5rf,parrot,<b><font size=6>Most organisms live in temperate climates.</font></b>,z,Evolution,Selection,FALSE,FALSE,FALSE,FALSE,0,NA,Nope
2846,html-keyboard-response,48,41,2.0.0,148719,p0gn130e5rf,parrot,<b><font size=6>Exercise can change one's genome.</font></b>,z,Genetics,Mutation,TRUE,FALSE,FALSE,FALSE,0,NA,Nope
2039,html-keyboard-response,49,42,2.0.0,151260,p0gn130e5rf,parrot,<b><font size=6>Pierced ears are heritable.</font></b>,m,Genetics,Heritability,FALSE,FALSE,FALSE,TRUE,1,NA,Nope
2268,html-keyboard-response,50,43,2.0.0,154030,p0gn130e5rf,parrot,<b><font size=6>Radiation can change one's genome.</font></b>,z,Genetics,Mutation,TRUE,TRUE,TRUE,TRUE,1,NA,Nope
2987,html-keyboard-response,51,44,2.0.0,157519,p0gn130e5rf,parrot,<b><font size=6>Genes that code for eye color can be found in tears.</font></b>,m,Genetics,Expression,TRUE,FALSE,FALSE,TRUE,1,NA,Nope
2209,html-keyboard-response,52,45,2.0.0,160230,p0gn130e5rf,parrot,<b><font size=6>Immunity to chickenpox is heritable.</font></b>,m,Genetics,Heritability,TRUE,FALSE,FALSE,TRUE,1,NA,Nope
2967,html-keyboard-response,53,46,2.0.0,163700,p0gn130e5rf,parrot,<b><font size=6>Men have more chromosomes than women.</font></b>,m,Genetics,Chromosome,FALSE,FALSE,FALSE,TRUE,1,NA,Nope
1987,html-keyboard-response,54,47,2.0.0,166189,p0gn130e5rf,parrot,<b><font size=6>Skin cells have more chromosomes than egg cells.</font></b>,z,Genetics,Chromosome,FALSE,TRUE,TRUE,TRUE,1,NA,Nope
1156,html-keyboard-response,55,48,2.0.0,167848,p0gn130e5rf,parrot,<b><font size=6>Sunscreen can change one's genome.</font></b>,m,Genetics,Mutation,FALSE,FALSE,FALSE,TRUE,1,NA,Nope
2015,html-keyboard-response,56,49,2.0.0,170365,p0gn130e5rf,parrot,<b><font size=6>Viruses can change one's genome.</font></b>,z,Genetics,Mutation,FALSE,TRUE,TRUE,TRUE,1,NA,Nope
5956,html-keyboard-response,57,50,2.0.0,176824,p0gn130e5rf,parrot,<b><font size=6>Adults have more chromosomes than children.</font></b>,m,Genetics,Chromosome,TRUE,FALSE,FALSE,TRUE,1,NA,Nope
1468,html-keyboard-response,58,51,2.0.0,178795,p0gn130e5rf,parrot,<b><font size=6>Intelligence is heritable.</font></b>,z,Genetics,Heritability,FALSE,TRUE,TRUE,TRUE,1,NA,Nope
3115,html-keyboard-response,59,52,2.0.0,182414,p0gn130e5rf,parrot,<b><font size=6>Two brown-eyed parents could have a blue-eyed baby.</font></b>,z,Genetics,Dominance,FALSE,TRUE,TRUE,TRUE,1,NA,Nope
2112,html-keyboard-response,60,53,2.0.0,185027,p0gn130e5rf,parrot,<b><font size=6>Two blue-eyed parents could have a brown-eyed baby.</font></b>,z,Genetics,Dominance,FALSE,FALSE,FALSE,FALSE,0,NA,Nope
1490,html-keyboard-response,61,54,2.0.0,187019,p0gn130e5rf,parrot,<b><font size=6>Two brown-eyed parents could have a brown-eyed baby.</font></b>,z,Genetics,Dominance,TRUE,TRUE,TRUE,TRUE,1,NA,Nope
833,html-keyboard-response,62,55,2.0.0,188354,p0gn130e5rf,parrot,<b><font size=6>A blue-eyed baby must have two blue-eyed parents.</font></b>,m,Genetics,Dominance,TRUE,FALSE,FALSE,TRUE,1,NA,Nope
1851,html-keyboard-response,63,56,2.0.0,190707,p0gn130e5rf,parrot,<b><font size=6>Humans have more chromosomes than mosquitoes.</font></b>,z,Genetics,Chromosome,TRUE,TRUE,TRUE,TRUE,1,NA,Nope
4953,html-keyboard-response,64,57,2.0.0,196162,p0gn130e5rf,parrot,<b><font size=6>Genes that code for eye color can be found in the liver.</font></b>,z,Genetics,Expression,FALSE,TRUE,TRUE,TRUE,1,NA,Nope
1432,html-keyboard-response,65,58,2.0.0,198096,p0gn130e5rf,parrot,<b><font size=6>Hair color is heritable.</font></b>,z,Genetics,Heritability,TRUE,TRUE,TRUE,TRUE,1,NA,Nope
5873,html-keyboard-response,66,59,2.0.0,204472,p0gn130e5rf,parrot,<b><font size=6>Genes that code for eye color can be found in hair.</font></b>,m,Genetics,Expression,FALSE,FALSE,FALSE,TRUE,1,NA,Nope
1134,html-keyboard-response,67,60,2.0.0,206108,p0gn130e5rf,parrot,<b><font size=6>Genes that code for eye color can be found in the eye.</font></b>,z,Genetics,Expression,TRUE,TRUE,TRUE,TRUE,1,NA,Nope
1138,html-keyboard-response,69,61,2.0.0,208832,p0gn130e5rf,parrot,<b><font size=6>Plants turn food into energy.</font></b>,z,Physiology,Metabolism,TRUE,FALSE,FALSE,FALSE,0,NA,Nope
2450,html-keyboard-response,70,62,2.0.0,211785,p0gn130e5rf,parrot,<b><font size=6>Mushrooms can die.</font></b>,z,Physiology,Death,FALSE,TRUE,TRUE,TRUE,1,NA,Nope
900,html-keyboard-response,71,63,2.0.0,213186,p0gn130e5rf,parrot,<b><font size=6>Tigers can reproduce.</font></b>,z,Physiology,Reproduction,TRUE,TRUE,TRUE,TRUE,1,NA,Nope
4999,html-keyboard-response,72,64,2.0.0,218687,p0gn130e5rf,parrot,<b><font size=6>Bacteria turn food into energy.</font></b>,z,Physiology,Metabolism,FALSE,TRUE,TRUE,TRUE,1,NA,Nope
2882,html-keyboard-response,73,65,2.0.0,222072,p0gn130e5rf,parrot,<b><font size=6>A baby can be a niece or a nephew.</font></b>,z,Physiology,Kinship,TRUE,TRUE,TRUE,TRUE,1,NA,Nope
5570,html-keyboard-response,74,66,2.0.0,228143,p0gn130e5rf,parrot,<b><font size=6>A baby can be a mother or a father.</font></b>,m,Physiology,Kinship,FALSE,FALSE,FALSE,TRUE,1,NA,Nope
1724,html-keyboard-response,75,67,2.0.0,230369,p0gn130e5rf,parrot,<b><font size=6>Ferns can reproduce.</font></b>,z,Physiology,Reproduction,FALSE,TRUE,TRUE,TRUE,1,NA,Nope
518,html-keyboard-response,76,68,2.0.0,231390,p0gn130e5rf,parrot,<b><font size=6>Coral is alive.</font></b>,m,Physiology,Life,FALSE,TRUE,TRUE,FALSE,0,NA,Nope
1543,html-keyboard-response,77,69,2.0.0,233435,p0gn130e5rf,parrot,<b><font size=6>Rocks are alive.</font></b>,m,Physiology,Life,FALSE,FALSE,FALSE,TRUE,1,NA,Nope
2453,html-keyboard-response,78,70,2.0.0,236391,p0gn130e5rf,parrot,<b><font size=6>Screwdrivers can die.</font></b>,m,Physiology,Death,FALSE,FALSE,FALSE,TRUE,1,NA,Nope
4207,html-keyboard-response,79,71,2.0.0,241101,p0gn130e5rf,parrot,<b><font size=6>A baby can be an uncle or an aunt.</font></b>,z,Physiology,Kinship,FALSE,TRUE,TRUE,TRUE,1,NA,Nope
1555,html-keyboard-response,80,72,2.0.0,243158,p0gn130e5rf,parrot,<b><font size=6>Fish are alive.</font></b>,z,Physiology,Life,TRUE,TRUE,TRUE,TRUE,1,NA,Nope
4373,html-keyboard-response,81,73,2.0.0,248033,p0gn130e5rf,parrot,<b><font size=6>A baby can be identical to an older sibling.</font></b>,m,Physiology,Kinship,TRUE,FALSE,FALSE,TRUE,1,NA,Nope
1188,html-keyboard-response,82,74,2.0.0,249723,p0gn130e5rf,parrot,<b><font size=6>Turtles can die.</font></b>,z,Physiology,Death,TRUE,TRUE,TRUE,TRUE,1,NA,Nope
2865,html-keyboard-response,83,75,2.0.0,253090,p0gn130e5rf,parrot,<b><font size=6>Chairs can reproduce.</font></b>,m,Physiology,Reproduction,FALSE,FALSE,FALSE,TRUE,1,NA,Nope
1242,html-keyboard-response,84,76,2.0.0,254834,p0gn130e5rf,parrot,<b><font size=6>Rocks turn food into energy.</font></b>,m,Physiology,Metabolism,FALSE,FALSE,FALSE,TRUE,1,NA,Nope
1758,html-keyboard-response,85,77,2.0.0,257094,p0gn130e5rf,parrot,<b><font size=6>Clouds can die.</font></b>,m,Physiology,Death,TRUE,FALSE,FALSE,TRUE,1,NA,Nope
878,html-keyboard-response,86,78,2.0.0,258474,p0gn130e5rf,parrot,<b><font size=6>Caterpillars can reproduce.</font></b>,z,Physiology,Reproduction,TRUE,FALSE,FALSE,FALSE,0,NA,Nope
1833,html-keyboard-response,87,79,2.0.0,260809,p0gn130e5rf,parrot,<b><font size=6>The sun is alive.</font></b>,m,Physiology,Life,TRUE,FALSE,FALSE,TRUE,1,NA,Nope
2121,html-keyboard-response,88,80,2.0.0,263433,p0gn130e5rf,parrot,<b><font size=6>People turn food into energy.</font></b>,z,Physiology,Metabolism,TRUE,TRUE,TRUE,TRUE,1,NA,Nope
3115,html-keyboard-response,90,81,2.0.0,268201,p0gn130e5rf,parrot,<b><font size=6>4 divided by 1/2 is 8.</font></b>,z,Fractions,Division,FALSE,TRUE,TRUE,TRUE,1,NA,Nope
1984,html-keyboard-response,91,82,2.0.0,270687,p0gn130e5rf,parrot,<b><font size=6>There are numbers between 10 and 10.</font></b>,z,Fractions,Infinite density,FALSE,FALSE,FALSE,FALSE,0,NA,Nope
1971,html-keyboard-response,92,83,2.0.0,273161,p0gn130e5rf,parrot,<b><font size=6>1/3 plus 1/3 is 1/3.</font></b>,m,Fractions,Addition,FALSE,FALSE,FALSE,TRUE,1,NA,Nope
2456,html-keyboard-response,93,84,2.0.0,276120,p0gn130e5rf,parrot,<b><font size=6>There are numbers between 1 and 3.</font></b>,z,Fractions,Infinite density,TRUE,TRUE,TRUE,TRUE,1,NA,Nope
1249,html-keyboard-response,94,85,2.0.0,277871,p0gn130e5rf,parrot,<b><font size=6>1/3 plus 1/3 is 2/3.</font></b>,z,Fractions,Addition,TRUE,TRUE,TRUE,TRUE,1,NA,Nope
5478,html-keyboard-response,95,86,2.0.0,283851,p0gn130e5rf,parrot,<b><font size=6>2/3 plus 2/4 is 2/7.</font></b>,m,Fractions,Addition,TRUE,FALSE,FALSE,TRUE,1,NA,Nope
2184,html-keyboard-response,96,87,2.0.0,286535,p0gn130e5rf,parrot,<b><font size=6>There are numbers between 1/10 and 10/100.</font></b>,z,Fractions,Infinite density,TRUE,FALSE,FALSE,FALSE,0,NA,Nope
1945,html-keyboard-response,97,88,2.0.0,288982,p0gn130e5rf,parrot,<b><font size=6>1/17 is greater than 1/9.</font></b>,m,Fractions,Ordering,TRUE,FALSE,FALSE,TRUE,1,NA,Nope
3372,html-keyboard-response,98,89,2.0.0,292857,p0gn130e5rf,parrot,<b><font size=6>All integers are expressible as fractions.</font></b>,z,Fractions,Conversion,FALSE,TRUE,TRUE,TRUE,1,NA,Nope
8201,html-keyboard-response,99,90,2.0.0,301559,p0gn130e5rf,parrot,<b><font size=6>1/10 plus 1/10 is 1/5.</font></b>,z,Fractions,Addition,FALSE,TRUE,TRUE,TRUE,1,NA,Nope
1980,html-keyboard-response,100,91,2.0.0,304041,p0gn130e5rf,parrot,<b><font size=6>All fractions are expressible as decimals.</font></b>,z,Fractions,Conversion,TRUE,FALSE,FALSE,FALSE,0,NA,Nope
1406,html-keyboard-response,101,92,2.0.0,305949,p0gn130e5rf,parrot,<b><font size=6>All decimals are expressible as fractions.</font></b>,z,Fractions,Conversion,TRUE,TRUE,TRUE,TRUE,1,NA,Nope
4116,html-keyboard-response,102,93,2.0.0,310567,p0gn130e5rf,parrot,<b><font size=6>4 divided by 2/1 is 2.</font></b>,z,Fractions,Division,TRUE,TRUE,TRUE,TRUE,1,NA,Nope
3137,html-keyboard-response,103,94,2.0.0,314206,p0gn130e5rf,parrot,<b><font size=6>1/17 is greater than 16/17.</font></b>,m,Fractions,Ordering,FALSE,FALSE,FALSE,TRUE,1,NA,Nope
2076,html-keyboard-response,104,95,2.0.0,316783,p0gn130e5rf,parrot,<b><font size=6>1/13 is greater than 1/30.</font></b>,z,Fractions,Ordering,FALSE,TRUE,TRUE,TRUE,1,NA,Nope
4811,html-keyboard-response,105,96,2.0.0,322096,p0gn130e5rf,parrot,<b><font size=6>All fractions are expressible as integers.</font></b>,z,Fractions,Conversion,FALSE,FALSE,FALSE,FALSE,0,NA,Nope
3308,html-keyboard-response,106,97,2.0.0,325907,p0gn130e5rf,parrot,<b><font size=6>12/13 is greater than 1/13.</font></b>,z,Fractions,Ordering,TRUE,TRUE,TRUE,TRUE,1,NA,Nope
1431,html-keyboard-response,107,98,2.0.0,327840,p0gn130e5rf,parrot,<b><font size=6>8 divided by 2/1 is 3.</font></b>,m,Fractions,Division,FALSE,FALSE,FALSE,TRUE,1,NA,Nope
2015,html-keyboard-response,108,99,2.0.0,330358,p0gn130e5rf,parrot,<b><font size=6>There are numbers between 1/3 and 1/2.</font></b>,z,Fractions,Infinite density,FALSE,TRUE,TRUE,TRUE,1,NA,Nope
3077,html-keyboard-response,109,100,2.0.0,333936,p0gn130e5rf,parrot,<b><font size=6>8 divided by 1/2 is 4.</font></b>,m,Fractions,Division,TRUE,FALSE,FALSE,TRUE,1,NA,Nope
4830,html-keyboard-response,6,1,2.0.0,29459,p1s0mtu3x9e,p73,<b><font size=6>1/3 plus 1/3 is 2/3.</font></b>,z,Fractions,Addition,TRUE,TRUE,TRUE,TRUE,1,NA,no
2755,html-keyboard-response,7,2,2.0.0,32716,p1s0mtu3x9e,p73,<b><font size=6>There are numbers between 10 and 10.</font></b>,m,Fractions,Infinite density,FALSE,FALSE,FALSE,TRUE,1,NA,no
3802,html-keyboard-response,8,3,2.0.0,37021,p1s0mtu3x9e,p73,<b><font size=6>There are numbers between 1/3 and 1/2.</font></b>,z,Fractions,Infinite density,FALSE,TRUE,TRUE,TRUE,1,NA,no
11103,html-keyboard-response,9,4,2.0.0,48626,p1s0mtu3x9e,p73,<b><font size=6>2/3 plus 2/4 is 2/7.</font></b>,m,Fractions,Addition,TRUE,FALSE,FALSE,TRUE,1,NA,no
6677,html-keyboard-response,10,5,2.0.0,55805,p1s0mtu3x9e,p73,<b><font size=6>4 divided by 1/2 is 8.</font></b>,z,Fractions,Division,FALSE,TRUE,TRUE,TRUE,1,NA,no
1820,html-keyboard-response,11,6,2.0.0,58127,p1s0mtu3x9e,p73,<b><font size=6>There are numbers between 1 and 3.</font></b>,z,Fractions,Infinite density,TRUE,TRUE,TRUE,TRUE,1,NA,no
5614,html-keyboard-response,12,7,2.0.0,64244,p1s0mtu3x9e,p73,<b><font size=6>1/13 is greater than 1/30.</font></b>,z,Fractions,Ordering,FALSE,TRUE,TRUE,TRUE,1,NA,no
3256,html-keyboard-response,13,8,2.0.0,68003,p1s0mtu3x9e,p73,<b><font size=6>1/3 plus 1/3 is 1/3.</font></b>,m,Fractions,Addition,FALSE,FALSE,FALSE,TRUE,1,NA,no
3247,html-keyboard-response,14,9,2.0.0,71752,p1s0mtu3x9e,p73,<b><font size=6>8 divided by 1/2 is 4.</font></b>,m,Fractions,Division,TRUE,FALSE,FALSE,TRUE,1,NA,no
9651,html-keyboard-response,15,10,2.0.0,81906,p1s0mtu3x9e,p73,<b><font size=6>8 divided by 2/1 is 3.</font></b>,m,Fractions,Division,FALSE,FALSE,FALSE,TRUE,1,NA,no
3828,html-keyboard-response,16,11,2.0.0,86237,p1s0mtu3x9e,p73,<b><font size=6>1/17 is greater than 16/17.</font></b>,m,Fractions,Ordering,FALSE,FALSE,FALSE,TRUE,1,NA,no
2675,html-keyboard-response,17,12,2.0.0,89413,p1s0mtu3x9e,p73,<b><font size=6>1/10 plus 1/10 is 1/5.</font></b>,z,Fractions,Addition,FALSE,TRUE,TRUE,TRUE,1,NA,no
4779,html-keyboard-response,18,13,2.0.0,94695,p1s0mtu3x9e,p73,<b><font size=6>4 divided by 2/1 is 2.</font></b>,z,Fractions,Division,TRUE,TRUE,TRUE,TRUE,1,NA,no
5323,html-keyboard-response,19,14,2.0.0,100520,p1s0mtu3x9e,p73,<b><font size=6>1/17 is greater than 1/9.</font></b>,m,Fractions,Ordering,TRUE,FALSE,FALSE,TRUE,1,NA,no
2074,html-keyboard-response,20,15,2.0.0,103097,p1s0mtu3x9e,p73,<b><font size=6>12/13 is greater than 1/13.</font></b>,z,Fractions,Ordering,TRUE,TRUE,TRUE,TRUE,1,NA,no
3644,html-keyboard-response,21,16,2.0.0,107242,p1s0mtu3x9e,p73,<b><font size=6>All decimals are expressible as fractions.</font></b>,z,Fractions,Conversion,TRUE,TRUE,TRUE,TRUE,1,NA,no
3951,html-keyboard-response,22,17,2.0.0,111695,p1s0mtu3x9e,p73,<b><font size=6>All integers are expressible as fractions.</font></b>,z,Fractions,Conversion,FALSE,TRUE,TRUE,TRUE,1,NA,no
6503,html-keyboard-response,23,18,2.0.0,118701,p1s0mtu3x9e,p73,<b><font size=6>There are numbers between 1/10 and 10/100.</font></b>,m,Fractions,Infinite density,TRUE,FALSE,FALSE,TRUE,1,NA,no
8484,html-keyboard-response,24,19,2.0.0,127686,p1s0mtu3x9e,p73,<b><font size=6>All fractions are expressible as integers.</font></b>,m,Fractions,Conversion,FALSE,FALSE,FALSE,TRUE,1,NA,no
6148,html-keyboard-response,25,20,2.0.0,134337,p1s0mtu3x9e,p73,<b><font size=6>All fractions are expressible as decimals.</font></b>,z,Fractions,Conversion,TRUE,FALSE,FALSE,FALSE,0,NA,no
5404,html-keyboard-response,27,21,2.0.0,142448,p1s0mtu3x9e,p73,<b><font size=6>White light contains all colors of light.</font></b>,z,Waves,Light,FALSE,TRUE,TRUE,TRUE,1,NA,no
1679,html-keyboard-response,28,22,2.0.0,144629,p1s0mtu3x9e,p73,<b><font size=6>Sounds can be dead or alive.</font></b>,m,Waves,Sound,FALSE,FALSE,FALSE,TRUE,1,NA,no
3441,html-keyboard-response,29,23,2.0.0,148572,p1s0mtu3x9e,p73,<b><font size=6>Red objects reflect blue light.</font></b>,z,Waves,Color,FALSE,FALSE,FALSE,FALSE,0,NA,no
3100,html-keyboard-response,30,24,2.0.0,152173,p1s0mtu3x9e,p73,<b><font size=6>Rainbows contain all colors of light.</font></b>,z,Waves,Light,TRUE,TRUE,TRUE,TRUE,1,NA,no
1789,html-keyboard-response,31,25,2.0.0,154465,p1s0mtu3x9e,p73,<b><font size=6>Sounds can be loud or quiet.</font></b>,z,Waves,Sound,TRUE,TRUE,TRUE,TRUE,1,NA,no
3847,html-keyboard-response,32,26,2.0.0,158814,p1s0mtu3x9e,p73,<b><font size=6>Red objects reflect red light.</font></b>,z,Waves,Color,TRUE,TRUE,TRUE,TRUE,1,NA,no
4851,html-keyboard-response,33,27,2.0.0,164167,p1s0mtu3x9e,p73,<b><font size=6>Foam reflects sound.</font></b>,m,Waves,Reflection,FALSE,FALSE,FALSE,TRUE,1,NA,no
2935,html-keyboard-response,34,28,2.0.0,167604,p1s0mtu3x9e,p73,<b><font size=6>Black objects reflect all colors of light.</font></b>,m,Waves,Light,TRUE,FALSE,FALSE,TRUE,1,NA,no
2667,html-keyboard-response,35,29,2.0.0,170772,p1s0mtu3x9e,p73,<b><font size=6>Mirrors reflect light.</font></b>,z,Waves,Reflection,TRUE,TRUE,TRUE,TRUE,1,NA,no
4349,html-keyboard-response,36,30,2.0.0,175623,p1s0mtu3x9e,p73,<b><font size=6>Red objects absorb blue light.</font></b>,z,Waves,Color,FALSE,TRUE,TRUE,TRUE,1,NA,no
1941,html-keyboard-response,37,31,2.0.0,178067,p1s0mtu3x9e,p73,<b><font size=6>Prisms reflect light.</font></b>,z,Waves,Reflection,TRUE,FALSE,FALSE,FALSE,0,NA,no
6939,html-keyboard-response,38,32,2.0.0,185508,p1s0mtu3x9e,p73,<b><font size=6>Shadows contain all colors of light.</font></b>,m,Waves,Light,FALSE,FALSE,FALSE,TRUE,1,NA,no
2165,html-keyboard-response,39,33,2.0.0,188174,p1s0mtu3x9e,p73,<b><font size=6>Sound travels through air.</font></b>,z,Waves,Propagation,TRUE,TRUE,TRUE,TRUE,1,NA,no
1436,html-keyboard-response,40,34,2.0.0,190112,p1s0mtu3x9e,p73,<b><font size=6>Sound travels through foam.</font></b>,m,Waves,Propagation,FALSE,FALSE,FALSE,TRUE,1,NA,no
4294,html-keyboard-response,41,35,2.0.0,194908,p1s0mtu3x9e,p73,<b><font size=6>Red objects absorb red light.</font></b>,m,Waves,Color,TRUE,FALSE,FALSE,TRUE,1,NA,no
4206,html-keyboard-response,42,36,2.0.0,199616,p1s0mtu3x9e,p73,<b><font size=6>Sound travels through metal.</font></b>,m,Waves,Propagation,FALSE,TRUE,TRUE,FALSE,0,NA,no
2577,html-keyboard-response,43,37,2.0.0,202695,p1s0mtu3x9e,p73,<b><font size=6>Sounds can be near or far.</font></b>,z,Waves,Sound,TRUE,FALSE,FALSE,FALSE,0,NA,no
2465,html-keyboard-response,44,38,2.0.0,205662,p1s0mtu3x9e,p73,<b><font size=6>Sound travels through a vacuum.</font></b>,m,Waves,Propagation,TRUE,FALSE,FALSE,TRUE,1,NA,no
2176,html-keyboard-response,45,39,2.0.0,208340,p1s0mtu3x9e,p73,<b><font size=6>Sounds can be direct or reflected.</font></b>,z,Waves,Sound,FALSE,TRUE,TRUE,TRUE,1,NA,no
2132,html-keyboard-response,46,40,2.0.0,210974,p1s0mtu3x9e,p73,<b><font size=6>Mirrors reflect sound.</font></b>,m,Waves,Reflection,FALSE,TRUE,TRUE,FALSE,0,NA,no
5581,html-keyboard-response,48,41,2.0.0,219262,p1s0mtu3x9e,p73,<b><font size=6>Skin cells have more chromosomes than egg cells.</font></b>,m,Genetics,Chromosome,FALSE,TRUE,TRUE,FALSE,0,NA,no
1839,html-keyboard-response,49,42,2.0.0,221603,p1s0mtu3x9e,p73,<b><font size=6>Pierced ears are heritable.</font></b>,m,Genetics,Heritability,FALSE,FALSE,FALSE,TRUE,1,NA,no
2019,html-keyboard-response,50,43,2.0.0,224124,p1s0mtu3x9e,p73,<b><font size=6>Hair color is heritable.</font></b>,z,Genetics,Heritability,TRUE,TRUE,TRUE,TRUE,1,NA,no
2192,html-keyboard-response,51,44,2.0.0,226818,p1s0mtu3x9e,p73,<b><font size=6>A blue-eyed baby must have two blue-eyed parents.</font></b>,m,Genetics,Dominance,TRUE,FALSE,FALSE,TRUE,1,NA,no
2709,html-keyboard-response,52,45,2.0.0,230029,p1s0mtu3x9e,p73,<b><font size=6>Genes that code for eye color can be found in the eye.</font></b>,m,Genetics,Expression,TRUE,TRUE,TRUE,FALSE,0,NA,no
2762,html-keyboard-response,53,46,2.0.0,233293,p1s0mtu3x9e,p73,<b><font size=6>Radiation can change one's genome.</font></b>,z,Genetics,Mutation,TRUE,TRUE,TRUE,TRUE,1,NA,no
4834,html-keyboard-response,54,47,2.0.0,238629,p1s0mtu3x9e,p73,<b><font size=6>Men have more chromosomes than women.</font></b>,m,Genetics,Chromosome,FALSE,FALSE,FALSE,TRUE,1,NA,no
2810,html-keyboard-response,55,48,2.0.0,241942,p1s0mtu3x9e,p73,<b><font size=6>Two brown-eyed parents could have a brown-eyed baby.</font></b>,z,Genetics,Dominance,TRUE,TRUE,TRUE,TRUE,1,NA,no
2622,html-keyboard-response,56,49,2.0.0,245066,p1s0mtu3x9e,p73,<b><font size=6>Humans have more chromosomes than mosquitoes.</font></b>,z,Genetics,Chromosome,TRUE,TRUE,TRUE,TRUE,1,NA,no
3056,html-keyboard-response,57,50,2.0.0,248624,p1s0mtu3x9e,p73,<b><font size=6>Genes that code for eye color can be found in hair.</font></b>,z,Genetics,Expression,FALSE,FALSE,FALSE,FALSE,0,NA,no
3929,html-keyboard-response,58,51,2.0.0,253055,p1s0mtu3x9e,p73,<b><font size=6>Two blue-eyed parents could have a brown-eyed baby.</font></b>,z,Genetics,Dominance,FALSE,FALSE,FALSE,FALSE,0,NA,no
2922,html-keyboard-response,59,52,2.0.0,256480,p1s0mtu3x9e,p73,<b><font size=6>Exercise can change one's genome.</font></b>,m,Genetics,Mutation,TRUE,FALSE,FALSE,TRUE,1,NA,no
3105,html-keyboard-response,60,53,2.0.0,260086,p1s0mtu3x9e,p73,<b><font size=6>Genes that code for eye color can be found in tears.</font></b>,m,Genetics,Expression,TRUE,FALSE,FALSE,TRUE,1,NA,no
5301,html-keyboard-response,61,54,2.0.0,265890,p1s0mtu3x9e,p73,<b><font size=6>Two brown-eyed parents could have a blue-eyed baby.</font></b>,z,Genetics,Dominance,FALSE,TRUE,TRUE,TRUE,1,NA,no
1580,html-keyboard-response,62,55,2.0.0,267972,p1s0mtu3x9e,p73,<b><font size=6>Intelligence is heritable.</font></b>,z,Genetics,Heritability,FALSE,TRUE,TRUE,TRUE,1,NA,no
2753,html-keyboard-response,63,56,2.0.0,271227,p1s0mtu3x9e,p73,<b><font size=6>Adults have more chromosomes than children.</font></b>,m,Genetics,Chromosome,TRUE,FALSE,FALSE,TRUE,1,NA,no
1976,html-keyboard-response,64,57,2.0.0,273706,p1s0mtu3x9e,p73,<b><font size=6>Sunscreen can change one's genome.</font></b>,m,Genetics,Mutation,FALSE,FALSE,FALSE,TRUE,1,NA,no
1907,html-keyboard-response,65,58,2.0.0,276115,p1s0mtu3x9e,p73,<b><font size=6>Immunity to chickenpox is heritable.</font></b>,m,Genetics,Heritability,TRUE,FALSE,FALSE,TRUE,1,NA,no
3337,html-keyboard-response,66,59,2.0.0,279954,p1s0mtu3x9e,p73,<b><font size=6>Viruses can change one's genome.</font></b>,z,Genetics,Mutation,FALSE,TRUE,TRUE,TRUE,1,NA,no
2722,html-keyboard-response,67,60,2.0.0,283178,p1s0mtu3x9e,p73,<b><font size=6>Genes that code for eye color can be found in the liver.</font></b>,m,Genetics,Expression,FALSE,TRUE,TRUE,FALSE,0,NA,no
3474,html-keyboard-response,69,61,2.0.0,289358,p1s0mtu3x9e,p73,<b><font size=6>A grain of sand can be cut in half.</font></b>,z,Matter,Divisibility,FALSE,TRUE,TRUE,TRUE,1,NA,no
2226,html-keyboard-response,70,62,2.0.0,292086,p1s0mtu3x9e,p73,<b><font size=6>Foam is denser than brick.</font></b>,m,Matter,Density,FALSE,FALSE,FALSE,TRUE,1,NA,no
3825,html-keyboard-response,71,63,2.0.0,296413,p1s0mtu3x9e,p73,<b><font size=6>A cold penny is denser than a hot penny.</font></b>,z,Matter,Density,FALSE,TRUE,TRUE,TRUE,1,NA,no
3769,html-keyboard-response,72,64,2.0.0,300684,p1s0mtu3x9e,p73,<b><font size=6>A liter of water weighs more than a liter of air.</font></b>,z,Matter,Weight,TRUE,TRUE,TRUE,TRUE,1,NA,no
4165,html-keyboard-response,73,65,2.0.0,305352,p1s0mtu3x9e,p73,<b><font size=6>Atoms are mostly empty space.</font></b>,m,Matter,Atom,FALSE,TRUE,TRUE,FALSE,0,NA,no
2032,html-keyboard-response,74,66,2.0.0,307886,p1s0mtu3x9e,p73,<b><font size=6>An idea can be cut in half.</font></b>,m,Matter,Divisibility,FALSE,FALSE,FALSE,TRUE,1,NA,no
5034,html-keyboard-response,75,67,2.0.0,313421,p1s0mtu3x9e,p73,<b><font size=6>A pound of steel weighs more than a ton of steel.</font></b>,m,Matter,Weight,FALSE,FALSE,FALSE,TRUE,1,NA,no
2446,html-keyboard-response,76,68,2.0.0,316370,p1s0mtu3x9e,p73,<b><font size=6>Ice is denser than water.</font></b>,z,Matter,Density,TRUE,FALSE,FALSE,FALSE,0,NA,no
3583,html-keyboard-response,77,69,2.0.0,320456,p1s0mtu3x9e,p73,<b><font size=6>Air is composed of matter.</font></b>,z,Matter,Mass,FALSE,TRUE,TRUE,TRUE,1,NA,no
1713,html-keyboard-response,78,70,2.0.0,322671,p1s0mtu3x9e,p73,<b><font size=6>Rocks are composed of matter.</font></b>,z,Matter,Mass,TRUE,TRUE,TRUE,TRUE,1,NA,no
4486,html-keyboard-response,79,71,2.0.0,327658,p1s0mtu3x9e,p73,<b><font size=6>A pound of steel weighs more than a pound of feathers.</font></b>,z,Matter,Weight,TRUE,FALSE,FALSE,FALSE,0,NA,no
4412,html-keyboard-response,80,72,2.0.0,332572,p1s0mtu3x9e,p73,<b><font size=6>A liter of water weighs more than a liter of ice.</font></b>,z,Matter,Weight,FALSE,TRUE,TRUE,TRUE,1,NA,no
2637,html-keyboard-response,81,73,2.0.0,335712,p1s0mtu3x9e,p73,<b><font size=6>Fire is composed of matter.</font></b>,m,Matter,Mass,TRUE,FALSE,FALSE,TRUE,1,NA,no
3090,html-keyboard-response,82,74,2.0.0,339304,p1s0mtu3x9e,p73,<b><font size=6>Steel is denser than foam.</font></b>,z,Matter,Density,TRUE,TRUE,TRUE,TRUE,1,NA,no
3316,html-keyboard-response,83,75,2.0.0,343122,p1s0mtu3x9e,p73,<b><font size=6>Numbers are composed of matter.</font></b>,m,Matter,Mass,FALSE,FALSE,FALSE,TRUE,1,NA,no
1394,html-keyboard-response,84,76,2.0.0,345019,p1s0mtu3x9e,p73,<b><font size=6>A shadow can be cut in half.</font></b>,m,Matter,Divisibility,TRUE,FALSE,FALSE,TRUE,1,NA,no
1841,html-keyboard-response,85,77,2.0.0,347362,p1s0mtu3x9e,p73,<b><font size=6>Atoms are visible to the naked eye.</font></b>,m,Matter,Atom,FALSE,FALSE,FALSE,TRUE,1,NA,no
2430,html-keyboard-response,86,78,2.0.0,350294,p1s0mtu3x9e,p73,<b><font size=6>A log can be cut in half.</font></b>,z,Matter,Divisibility,TRUE,TRUE,TRUE,TRUE,1,NA,no
2671,html-keyboard-response,87,79,2.0.0,353466,p1s0mtu3x9e,p73,<b><font size=6>Atoms are the constituents of matter.</font></b>,z,Matter,Atom,TRUE,TRUE,TRUE,TRUE,1,NA,no
2794,html-keyboard-response,88,80,2.0.0,356762,p1s0mtu3x9e,p73,<b><font size=6>Atoms are weightless.</font></b>,z,Matter,Atom,TRUE,FALSE,FALSE,FALSE,0,NA,no
1214,html-keyboard-response,90,81,2.0.0,360683,p1s0mtu3x9e,p73,<b><font size=6>People turn food into energy.</font></b>,z,Physiology,Metabolism,TRUE,TRUE,TRUE,TRUE,1,NA,no
877,html-keyboard-response,91,82,2.0.0,362062,p1s0mtu3x9e,p73,<b><font size=6>Fish are alive.</font></b>,z,Physiology,Life,TRUE,TRUE,TRUE,TRUE,1,NA,no
751,html-keyboard-response,92,83,2.0.0,363315,p1s0mtu3x9e,p73,<b><font size=6>Coral is alive.</font></b>,z,Physiology,Life,FALSE,TRUE,TRUE,TRUE,1,NA,no
1452,html-keyboard-response,93,84,2.0.0,365269,p1s0mtu3x9e,p73,<b><font size=6>Clouds can die.</font></b>,m,Physiology,Death,TRUE,FALSE,FALSE,TRUE,1,NA,no
939,html-keyboard-response,94,85,2.0.0,366710,p1s0mtu3x9e,p73,<b><font size=6>Turtles can die.</font></b>,z,Physiology,Death,TRUE,TRUE,TRUE,TRUE,1,NA,no
1981,html-keyboard-response,95,86,2.0.0,369193,p1s0mtu3x9e,p73,<b><font size=6>A baby can be identical to an older sibling.</font></b>,m,Physiology,Kinship,TRUE,FALSE,FALSE,TRUE,1,NA,no
943,html-keyboard-response,96,87,2.0.0,370638,p1s0mtu3x9e,p73,<b><font size=6>Tigers can reproduce.</font></b>,z,Physiology,Reproduction,TRUE,TRUE,TRUE,TRUE,1,NA,no
1944,html-keyboard-response,97,88,2.0.0,373084,p1s0mtu3x9e,p73,<b><font size=6>A baby can be a niece or a nephew.</font></b>,z,Physiology,Kinship,TRUE,TRUE,TRUE,TRUE,1,NA,no
3123,html-keyboard-response,98,89,2.0.0,376709,p1s0mtu3x9e,p73,<b><font size=6>Plants turn food into energy.</font></b>,z,Physiology,Metabolism,TRUE,FALSE,FALSE,FALSE,0,NA,no
3093,html-keyboard-response,99,90,2.0.0,380303,p1s0mtu3x9e,p73,<b><font size=6>Screwdrivers can die.</font></b>,m,Physiology,Death,FALSE,FALSE,FALSE,TRUE,1,NA,no
1257,html-keyboard-response,100,91,2.0.0,382062,p1s0mtu3x9e,p73,<b><font size=6>Bacteria turn food into energy.</font></b>,z,Physiology,Metabolism,FALSE,TRUE,TRUE,TRUE,1,NA,no
974,html-keyboard-response,101,92,2.0.0,383539,p1s0mtu3x9e,p73,<b><font size=6>The sun is alive.</font></b>,m,Physiology,Life,TRUE,FALSE,FALSE,TRUE,1,NA,no
1436,html-keyboard-response,102,93,2.0.0,385477,p1s0mtu3x9e,p73,<b><font size=6>Rocks turn food into energy.</font></b>,m,Physiology,Metabolism,FALSE,FALSE,FALSE,TRUE,1,NA,no
1829,html-keyboard-response,103,94,2.0.0,387807,p1s0mtu3x9e,p73,<b><font size=6>A baby can be a mother or a father.</font></b>,m,Physiology,Kinship,FALSE,FALSE,FALSE,TRUE,1,NA,no
1526,html-keyboard-response,104,95,2.0.0,389835,p1s0mtu3x9e,p73,<b><font size=6>Ferns can reproduce.</font></b>,z,Physiology,Reproduction,FALSE,TRUE,TRUE,TRUE,1,NA,no
1381,html-keyboard-response,105,96,2.0.0,391719,p1s0mtu3x9e,p73,<b><font size=6>Rocks are alive.</font></b>,m,Physiology,Life,FALSE,FALSE,FALSE,TRUE,1,NA,no
1833,html-keyboard-response,106,97,2.0.0,394054,p1s0mtu3x9e,p73,<b><font size=6>A baby can be an uncle or an aunt.</font></b>,z,Physiology,Kinship,FALSE,TRUE,TRUE,TRUE,1,NA,no
1068,html-keyboard-response,107,98,2.0.0,395624,p1s0mtu3x9e,p73,<b><font size=6>Chairs can reproduce.</font></b>,m,Physiology,Reproduction,FALSE,FALSE,FALSE,TRUE,1,NA,no
1356,html-keyboard-response,108,99,2.0.0,397481,p1s0mtu3x9e,p73,<b><font size=6>Mushrooms can die.</font></b>,z,Physiology,Death,FALSE,TRUE,TRUE,TRUE,1,NA,no
1830,html-keyboard-response,109,100,2.0.0,399813,p1s0mtu3x9e,p73,<b><font size=6>Caterpillars can reproduce.</font></b>,m,Physiology,Reproduction,TRUE,FALSE,FALSE,TRUE,1,NA,no
2306,html-keyboard-response,6,1,2.0.0,39290,p2dyqlx4dsa,camel,<b><font size=6>Being cold can make a person sick.</font></b>,z,Germs,Contagion,TRUE,FALSE,FALSE,FALSE,0,NA,no
1681,html-keyboard-response,7,2,2.0.0,41473,p2dyqlx4dsa,camel,<b><font size=6>Kindness kills germs.</font></b>,m,Germs,Sterilization,FALSE,FALSE,FALSE,TRUE,1,NA,no
1281,html-keyboard-response,8,3,2.0.0,43271,p2dyqlx4dsa,camel,<b><font size=6>Being sneezed on can make a person sick.</font></b>,z,Germs,Contagion,TRUE,TRUE,TRUE,TRUE,1,NA,no
1222,html-keyboard-response,9,4,2.0.0,45005,p2dyqlx4dsa,camel,<b><font size=6>Germs have a shape.</font></b>,z,Germs,Microbe,TRUE,TRUE,TRUE,TRUE,1,NA,no
1129,html-keyboard-response,10,5,2.0.0,46643,p2dyqlx4dsa,camel,<b><font size=6>Germs enter the body through cuts.</font></b>,z,Germs,Infection,TRUE,TRUE,TRUE,TRUE,1,NA,no
976,html-keyboard-response,11,6,2.0.0,48133,p2dyqlx4dsa,camel,<b><font size=6>Germs enter the body through the skin.</font></b>,z,Germs,Infection,TRUE,FALSE,FALSE,FALSE,0,NA,no
2665,html-keyboard-response,12,7,2.0.0,51307,p2dyqlx4dsa,camel,<b><font size=6>Rotting meat contains germs.</font></b>,z,Germs,Contamination,TRUE,TRUE,TRUE,TRUE,1,NA,no
1161,html-keyboard-response,13,8,2.0.0,52974,p2dyqlx4dsa,camel,<b><font size=6>Germs have feelings.</font></b>,m,Germs,Microbe,FALSE,FALSE,FALSE,TRUE,1,NA,no
950,html-keyboard-response,14,9,2.0.0,54427,p2dyqlx4dsa,camel,<b><font size=6>Germs enter the body through the eyes.</font></b>,z,Germs,Infection,FALSE,TRUE,TRUE,TRUE,1,NA,no
4255,html-keyboard-response,15,10,2.0.0,59189,p2dyqlx4dsa,camel,<b><font size=6>Being happy can make a person sick.</font></b>,m,Germs,Contagion,FALSE,FALSE,FALSE,TRUE,1,NA,no
782,html-keyboard-response,16,11,2.0.0,60483,p2dyqlx4dsa,camel,<b><font size=6>Alcohol kills germs.</font></b>,z,Germs,Sterilization,TRUE,TRUE,TRUE,TRUE,1,NA,no
2443,html-keyboard-response,17,12,2.0.0,63427,p2dyqlx4dsa,camel,<b><font size=6>Sunshine contains germs.</font></b>,z,Germs,Contamination,FALSE,FALSE,FALSE,FALSE,0,NA,no
3493,html-keyboard-response,18,13,2.0.0,67421,p2dyqlx4dsa,camel,<b><font size=6>Germs enter the body through the hair.</font></b>,z,Germs,Infection,FALSE,FALSE,FALSE,FALSE,0,NA,no
1171,html-keyboard-response,19,14,2.0.0,69096,p2dyqlx4dsa,camel,<b><font size=6>Germs have DNA.</font></b>,z,Germs,Microbe,FALSE,TRUE,TRUE,TRUE,1,NA,no
3506,html-keyboard-response,20,15,2.0.0,73109,p2dyqlx4dsa,camel,<b><font size=6>Water kills germs.</font></b>,m,Germs,Sterilization,TRUE,FALSE,FALSE,TRUE,1,NA,no
796,html-keyboard-response,21,16,2.0.0,74411,p2dyqlx4dsa,camel,<b><font size=6>Heat kills germs.</font></b>,z,Germs,Sterilization,FALSE,TRUE,TRUE,TRUE,1,NA,no
1221,html-keyboard-response,22,17,2.0.0,76134,p2dyqlx4dsa,camel,<b><font size=6>Dish sponges contain germs.</font></b>,z,Germs,Contamination,FALSE,TRUE,TRUE,TRUE,1,NA,no
697,html-keyboard-response,23,18,2.0.0,77348,p2dyqlx4dsa,camel,<b><font size=6>Urine contains germs.</font></b>,z,Germs,Contamination,TRUE,FALSE,FALSE,FALSE,0,NA,no
1112,html-keyboard-response,24,19,2.0.0,78972,p2dyqlx4dsa,camel,<b><font size=6>Being depressed can make a person sick.</font></b>,z,Germs,Contagion,FALSE,TRUE,TRUE,TRUE,1,NA,no
770,html-keyboard-response,25,20,2.0.0,80244,p2dyqlx4dsa,camel,<b><font size=6>Germs have an odor.</font></b>,z,Germs,Microbe,TRUE,FALSE,FALSE,FALSE,0,NA,no
4079,html-keyboard-response,27,21,2.0.0,87057,p2dyqlx4dsa,camel,<b><font size=6>Steam has a lower temperature than ice.</font></b>,m,Thermodynamics,Temperature,FALSE,FALSE,FALSE,TRUE,1,NA,no
12217,html-keyboard-response,28,22,2.0.0,99786,p2dyqlx4dsa,camel,<b><font size=6>Cold objects transfer heat to even colder objects.</font></b>,m,Thermodynamics,Heat transfer,FALSE,TRUE,TRUE,FALSE,0,NA,no
3212,html-keyboard-response,29,23,2.0.0,103508,p2dyqlx4dsa,camel,<b><font size=6>Rain produces heat.</font></b>,z,Thermodynamics,Heat source,FALSE,FALSE,FALSE,FALSE,0,NA,no
3709,html-keyboard-response,30,24,2.0.0,107729,p2dyqlx4dsa,camel,<b><font size=6>Heat increases an object's color.</font></b>,z,Thermodynamics,Thermal expansion,FALSE,FALSE,FALSE,FALSE,0,NA,no
1832,html-keyboard-response,31,25,2.0.0,110076,p2dyqlx4dsa,camel,<b><font size=6>Gravity has heat.</font></b>,m,Thermodynamics,Heat,FALSE,FALSE,FALSE,TRUE,1,NA,no
777,html-keyboard-response,32,26,2.0.0,111364,p2dyqlx4dsa,camel,<b><font size=6>Ovens produce heat.</font></b>,z,Thermodynamics,Heat source,TRUE,TRUE,TRUE,TRUE,1,NA,no
21308,html-keyboard-response,33,27,2.0.0,133178,p2dyqlx4dsa,camel,<b><font size=6>Two cups of ice have a lower temperature than one.</font></b>,z,Thermodynamics,Temperature,TRUE,FALSE,FALSE,FALSE,0,NA,no
2591,html-keyboard-response,34,28,2.0.0,136283,p2dyqlx4dsa,camel,<b><font size=6>Heat increases an object's weight.</font></b>,m,Thermodynamics,Thermal expansion,TRUE,FALSE,FALSE,TRUE,1,NA,no
6174,html-keyboard-response,35,29,2.0.0,142969,p2dyqlx4dsa,camel,<b><font size=6>Boiling water has a lower temperature than steam.</font></b>,z,Thermodynamics,Temperature,FALSE,TRUE,TRUE,TRUE,1,NA,no
3690,html-keyboard-response,36,30,2.0.0,147175,p2dyqlx4dsa,camel,<b><font size=6>Water transfers heat to steam.</font></b>,z,Thermodynamics,Heat transfer,TRUE,FALSE,FALSE,FALSE,0,NA,no
1702,html-keyboard-response,37,31,2.0.0,149392,p2dyqlx4dsa,camel,<b><font size=6>Ice has a lower temperature than water.</font></b>,z,Thermodynamics,Temperature,TRUE,TRUE,TRUE,TRUE,1,NA,no
847,html-keyboard-response,38,32,2.0.0,150750,p2dyqlx4dsa,camel,<b><font size=6>The sun has heat.</font></b>,z,Thermodynamics,Heat,TRUE,TRUE,TRUE,TRUE,1,NA,no
3448,html-keyboard-response,39,33,2.0.0,154699,p2dyqlx4dsa,camel,<b><font size=6>Water transfers heat to ice.</font></b>,z,Thermodynamics,Heat transfer,TRUE,TRUE,TRUE,TRUE,1,NA,no
1400,html-keyboard-response,40,34,2.0.0,156616,p2dyqlx4dsa,camel,<b><font size=6>Heat increases an object's temperature.</font></b>,z,Thermodynamics,Thermal expansion,TRUE,TRUE,TRUE,TRUE,1,NA,no
6712,html-keyboard-response,41,35,2.0.0,163833,p2dyqlx4dsa,camel,<b><font size=6>Pressure produces heat.</font></b>,z,Thermodynamics,Heat source,FALSE,TRUE,TRUE,TRUE,1,NA,no
1277,html-keyboard-response,42,36,2.0.0,165617,p2dyqlx4dsa,camel,<b><font size=6>Ice has heat.</font></b>,z,Thermodynamics,Heat,FALSE,TRUE,TRUE,TRUE,1,NA,no
3293,html-keyboard-response,43,37,2.0.0,169412,p2dyqlx4dsa,camel,<b><font size=6>Cold objects transfer heat to warm objects.</font></b>,m,Thermodynamics,Heat transfer,FALSE,FALSE,FALSE,TRUE,1,NA,no
1200,html-keyboard-response,44,38,2.0.0,171115,p2dyqlx4dsa,camel,<b><font size=6>Heat increases an object's size.</font></b>,m,Thermodynamics,Thermal expansion,FALSE,TRUE,TRUE,FALSE,0,NA,no
3945,html-keyboard-response,45,39,2.0.0,175577,p2dyqlx4dsa,camel,<b><font size=6>Atoms have heat.</font></b>,m,Thermodynamics,Heat,TRUE,FALSE,FALSE,TRUE,1,NA,no
1249,html-keyboard-response,46,40,2.0.0,177340,p2dyqlx4dsa,camel,<b><font size=6>Coats produce heat.</font></b>,z,Thermodynamics,Heat source,TRUE,FALSE,FALSE,FALSE,0,NA,no
2047,html-keyboard-response,48,41,2.0.0,182113,p2dyqlx4dsa,camel,<b><font size=6>Mirrors reflect light.</font></b>,z,Waves,Reflection,TRUE,TRUE,TRUE,TRUE,1,NA,no
7411,html-keyboard-response,49,42,2.0.0,190032,p2dyqlx4dsa,camel,<b><font size=6>Red objects reflect blue light.</font></b>,m,Waves,Color,FALSE,FALSE,FALSE,TRUE,1,NA,no
1065,html-keyboard-response,50,43,2.0.0,191612,p2dyqlx4dsa,camel,<b><font size=6>Sound travels through air.</font></b>,z,Waves,Propagation,TRUE,TRUE,TRUE,TRUE,1,NA,no
4687,html-keyboard-response,51,44,2.0.0,196812,p2dyqlx4dsa,camel,<b><font size=6>Foam reflects sound.</font></b>,m,Waves,Reflection,FALSE,FALSE,FALSE,TRUE,1,NA,no
2457,html-keyboard-response,52,45,2.0.0,199777,p2dyqlx4dsa,camel,<b><font size=6>Sound travels through a vacuum.</font></b>,m,Waves,Propagation,TRUE,FALSE,FALSE,TRUE,1,NA,no
1286,html-keyboard-response,53,46,2.0.0,201595,p2dyqlx4dsa,camel,<b><font size=6>Sounds can be near or far.</font></b>,z,Waves,Sound,TRUE,FALSE,FALSE,FALSE,0,NA,no
8998,html-keyboard-response,54,47,2.0.0,211106,p2dyqlx4dsa,camel,<b><font size=6>Sound travels through metal.</font></b>,z,Waves,Propagation,FALSE,TRUE,TRUE,TRUE,1,NA,no
2658,html-keyboard-response,55,48,2.0.0,214275,p2dyqlx4dsa,camel,<b><font size=6>Rainbows contain all colors of light.</font></b>,z,Waves,Light,TRUE,TRUE,TRUE,TRUE,1,NA,no
1979,html-keyboard-response,56,49,2.0.0,216760,p2dyqlx4dsa,camel,<b><font size=6>Prisms reflect light.</font></b>,z,Waves,Reflection,TRUE,FALSE,FALSE,FALSE,0,NA,no
12151,html-keyboard-response,57,50,2.0.0,229415,p2dyqlx4dsa,camel,<b><font size=6>Black objects reflect all colors of light.</font></b>,m,Waves,Light,TRUE,FALSE,FALSE,TRUE,1,NA,no
1817,html-keyboard-response,58,51,2.0.0,231742,p2dyqlx4dsa,camel,<b><font size=6>Red objects absorb red light.</font></b>,z,Waves,Color,TRUE,FALSE,FALSE,FALSE,0,NA,no
1247,html-keyboard-response,59,52,2.0.0,233493,p2dyqlx4dsa,camel,<b><font size=6>Sounds can be loud or quiet.</font></b>,z,Waves,Sound,TRUE,TRUE,TRUE,TRUE,1,NA,no
1979,html-keyboard-response,60,53,2.0.0,235977,p2dyqlx4dsa,camel,<b><font size=6>Sounds can be dead or alive.</font></b>,m,Waves,Sound,FALSE,FALSE,FALSE,TRUE,1,NA,no
1939,html-keyboard-response,61,54,2.0.0,238425,p2dyqlx4dsa,camel,<b><font size=6>Shadows contain all colors of light.</font></b>,z,Waves,Light,FALSE,FALSE,FALSE,FALSE,0,NA,no
3962,html-keyboard-response,62,55,2.0.0,242900,p2dyqlx4dsa,camel,<b><font size=6>Sound travels through foam.</font></b>,m,Waves,Propagation,FALSE,FALSE,FALSE,TRUE,1,NA,no
2576,html-keyboard-response,63,56,2.0.0,245978,p2dyqlx4dsa,camel,<b><font size=6>Sounds can be direct or reflected.</font></b>,z,Waves,Sound,FALSE,TRUE,TRUE,TRUE,1,NA,no
1397,html-keyboard-response,64,57,2.0.0,247888,p2dyqlx4dsa,camel,<b><font size=6>Red objects absorb blue light.</font></b>,m,Waves,Color,FALSE,TRUE,TRUE,FALSE,0,NA,no
1008,html-keyboard-response,65,58,2.0.0,249402,p2dyqlx4dsa,camel,<b><font size=6>Red objects reflect red light.</font></b>,z,Waves,Color,TRUE,TRUE,TRUE,TRUE,1,NA,no
4048,html-keyboard-response,66,59,2.0.0,253956,p2dyqlx4dsa,camel,<b><font size=6>White light contains all colors of light.</font></b>,z,Waves,Light,FALSE,TRUE,TRUE,TRUE,1,NA,no
4384,html-keyboard-response,67,60,2.0.0,258849,p2dyqlx4dsa,camel,<b><font size=6>Mirrors reflect sound.</font></b>,z,Waves,Reflection,FALSE,TRUE,TRUE,TRUE,1,NA,no
4314,html-keyboard-response,69,61,2.0.0,265876,p2dyqlx4dsa,camel,<b><font size=6>There are numbers between 1/3 and 1/2.</font></b>,z,Fractions,Infinite density,FALSE,TRUE,TRUE,TRUE,1,NA,no
861,html-keyboard-response,70,62,2.0.0,267250,p2dyqlx4dsa,camel,<b><font size=6>There are numbers between 1 and 3.</font></b>,z,Fractions,Infinite density,TRUE,TRUE,TRUE,TRUE,1,NA,no
1891,html-keyboard-response,71,63,2.0.0,269655,p2dyqlx4dsa,camel,<b><font size=6>8 divided by 1/2 is 4.</font></b>,z,Fractions,Division,TRUE,FALSE,FALSE,FALSE,0,NA,no
3227,html-keyboard-response,72,64,2.0.0,273396,p2dyqlx4dsa,camel,<b><font size=6>4 divided by 2/1 is 2.</font></b>,z,Fractions,Division,TRUE,TRUE,TRUE,TRUE,1,NA,no
6724,html-keyboard-response,73,65,2.0.0,280625,p2dyqlx4dsa,camel,<b><font size=6>There are numbers between 1/10 and 10/100.</font></b>,m,Fractions,Infinite density,TRUE,FALSE,FALSE,TRUE,1,NA,no
2521,html-keyboard-response,74,66,2.0.0,283657,p2dyqlx4dsa,camel,<b><font size=6>1/10 plus 1/10 is 1/5.</font></b>,z,Fractions,Addition,FALSE,TRUE,TRUE,TRUE,1,NA,no
2617,html-keyboard-response,75,67,2.0.0,286775,p2dyqlx4dsa,camel,<b><font size=6>1/17 is greater than 1/9.</font></b>,m,Fractions,Ordering,TRUE,FALSE,FALSE,TRUE,1,NA,no
1572,html-keyboard-response,76,68,2.0.0,288862,p2dyqlx4dsa,camel,<b><font size=6>There are numbers between 10 and 10.</font></b>,m,Fractions,Infinite density,FALSE,FALSE,FALSE,TRUE,1,NA,no
3933,html-keyboard-response,77,69,2.0.0,293305,p2dyqlx4dsa,camel,<b><font size=6>1/13 is greater than 1/30.</font></b>,z,Fractions,Ordering,FALSE,TRUE,TRUE,TRUE,1,NA,no
5534,html-keyboard-response,78,70,2.0.0,299341,p2dyqlx4dsa,camel,<b><font size=6>All fractions are expressible as decimals.</font></b>,z,Fractions,Conversion,TRUE,FALSE,FALSE,FALSE,0,NA,no
7461,html-keyboard-response,79,71,2.0.0,307318,p2dyqlx4dsa,camel,<b><font size=6>2/3 plus 2/4 is 2/7.</font></b>,m,Fractions,Addition,TRUE,FALSE,FALSE,TRUE,1,NA,no
1979,html-keyboard-response,80,72,2.0.0,309804,p2dyqlx4dsa,camel,<b><font size=6>1/3 plus 1/3 is 1/3.</font></b>,m,Fractions,Addition,FALSE,FALSE,FALSE,TRUE,1,NA,no
1405,html-keyboard-response,81,73,2.0.0,311713,p2dyqlx4dsa,camel,<b><font size=6>8 divided by 2/1 is 3.</font></b>,m,Fractions,Division,FALSE,FALSE,FALSE,TRUE,1,NA,no
7439,html-keyboard-response,82,74,2.0.0,319666,p2dyqlx4dsa,camel,<b><font size=6>All fractions are expressible as integers.</font></b>,m,Fractions,Conversion,FALSE,FALSE,FALSE,TRUE,1,NA,no
2886,html-keyboard-response,83,75,2.0.0,323053,p2dyqlx4dsa,camel,<b><font size=6>All integers are expressible as fractions.</font></b>,z,Fractions,Conversion,FALSE,TRUE,TRUE,TRUE,1,NA,no
4888,html-keyboard-response,84,76,2.0.0,328446,p2dyqlx4dsa,camel,<b><font size=6>All decimals are expressible as fractions.</font></b>,m,Fractions,Conversion,TRUE,TRUE,TRUE,FALSE,0,NA,no
1980,html-keyboard-response,85,77,2.0.0,330932,p2dyqlx4dsa,camel,<b><font size=6>4 divided by 1/2 is 8.</font></b>,m,Fractions,Division,FALSE,TRUE,TRUE,FALSE,0,NA,no
1514,html-keyboard-response,86,78,2.0.0,332961,p2dyqlx4dsa,camel,<b><font size=6>1/17 is greater than 16/17.</font></b>,m,Fractions,Ordering,FALSE,FALSE,FALSE,TRUE,1,NA,no
1790,html-keyboard-response,87,79,2.0.0,335264,p2dyqlx4dsa,camel,<b><font size=6>1/3 plus 1/3 is 2/3.</font></b>,z,Fractions,Addition,TRUE,TRUE,TRUE,TRUE,1,NA,no
1498,html-keyboard-response,88,80,2.0.0,337272,p2dyqlx4dsa,camel,<b><font size=6>12/13 is greater than 1/13.</font></b>,z,Fractions,Ordering,TRUE,TRUE,TRUE,TRUE,1,NA,no
2030,html-keyboard-response,90,81,2.0.0,342035,p2dyqlx4dsa,camel,<b><font size=6>A moving bullet loses speed.</font></b>,z,Mechanics,Velocity,TRUE,TRUE,TRUE,TRUE,1,NA,no
1283,html-keyboard-response,91,82,2.0.0,343826,p2dyqlx4dsa,camel,<b><font size=6>Energy can be transferred from one object to another.</font></b>,z,Mechanics,Momentum,FALSE,TRUE,TRUE,TRUE,1,NA,no
7183,html-keyboard-response,92,83,2.0.0,351521,p2dyqlx4dsa,camel,<b><font size=6>Pointy objects fall through air faster than flat objects.</font></b>,z,Mechanics,Gravity,FALSE,TRUE,TRUE,TRUE,1,NA,no
3543,html-keyboard-response,93,84,2.0.0,355572,p2dyqlx4dsa,camel,<b><font size=6>Constant motion requires constant force.</font></b>,z,Mechanics,Acceleration,TRUE,FALSE,FALSE,FALSE,0,NA,no
10692,html-keyboard-response,94,85,2.0.0,366773,p2dyqlx4dsa,camel,<b><font size=6>A moving bullet loses force.</font></b>,z,Mechanics,Velocity,TRUE,FALSE,FALSE,FALSE,0,NA,no
2466,html-keyboard-response,95,86,2.0.0,369747,p2dyqlx4dsa,camel,<b><font size=6>Forces can be balanced or unbalanced.</font></b>,z,Mechanics,Force,FALSE,TRUE,TRUE,TRUE,1,NA,no
4075,html-keyboard-response,96,87,2.0.0,374336,p2dyqlx4dsa,camel,<b><font size=6>Heavy balls fall through air faster than light balls.</font></b>,z,Mechanics,Gravity,TRUE,FALSE,FALSE,FALSE,0,NA,no
2002,html-keyboard-response,97,88,2.0.0,376846,p2dyqlx4dsa,camel,<b><font size=6>Forces can be transferred from one object to another.</font></b>,z,Mechanics,Momentum,TRUE,FALSE,FALSE,FALSE,0,NA,no
878,html-keyboard-response,98,89,2.0.0,378230,p2dyqlx4dsa,camel,<b><font size=6>Forces can be strong or weak.</font></b>,z,Mechanics,Force,TRUE,TRUE,TRUE,TRUE,1,NA,no
2210,html-keyboard-response,99,90,2.0.0,380955,p2dyqlx4dsa,camel,<b><font size=6>Forces can be straight or curved.</font></b>,z,Mechanics,Force,TRUE,FALSE,FALSE,FALSE,0,NA,no
1803,html-keyboard-response,100,91,2.0.0,383258,p2dyqlx4dsa,camel,<b><font size=6>Forces can be male or female.</font></b>,m,Mechanics,Force,FALSE,FALSE,FALSE,TRUE,1,NA,no
1718,html-keyboard-response,101,92,2.0.0,385483,p2dyqlx4dsa,camel,<b><font size=6>Momentum can be transferred from one object to another.</font></b>,z,Mechanics,Momentum,TRUE,TRUE,TRUE,TRUE,1,NA,no
3675,html-keyboard-response,102,93,2.0.0,389670,p2dyqlx4dsa,camel,<b><font size=6>Constant force can yield constant rest.</font></b>,z,Mechanics,Acceleration,FALSE,TRUE,TRUE,TRUE,1,NA,no
5288,html-keyboard-response,103,94,2.0.0,395460,p2dyqlx4dsa,camel,<b><font size=6>A moving bullet loses height.</font></b>,z,Mechanics,Velocity,FALSE,TRUE,TRUE,TRUE,1,NA,no
3957,html-keyboard-response,104,95,2.0.0,399932,p2dyqlx4dsa,camel,<b><font size=6>Anvils fall through air faster than feathers.</font></b>,z,Mechanics,Gravity,TRUE,TRUE,TRUE,TRUE,1,NA,no
3321,html-keyboard-response,105,96,2.0.0,403754,p2dyqlx4dsa,camel,<b><font size=6>Constant acceleration requires constant force.</font></b>,z,Mechanics,Acceleration,TRUE,TRUE,TRUE,TRUE,1,NA,no
3818,html-keyboard-response,106,97,2.0.0,408071,p2dyqlx4dsa,camel,<b><font size=6>Bright objects fall through air faster than dark objects.</font></b>,m,Mechanics,Gravity,FALSE,FALSE,FALSE,TRUE,1,NA,no
7640,html-keyboard-response,107,98,2.0.0,416226,p2dyqlx4dsa,camel,<b><font size=6>Constant speed requires constant acceleration.</font></b>,m,Mechanics,Acceleration,FALSE,FALSE,FALSE,TRUE,1,NA,no
1148,html-keyboard-response,108,99,2.0.0,417877,p2dyqlx4dsa,camel,<b><font size=6>A moving bullet loses weight.</font></b>,z,Mechanics,Velocity,FALSE,FALSE,FALSE,FALSE,0,NA,no
7328,html-keyboard-response,109,100,2.0.0,425718,p2dyqlx4dsa,camel,<b><font size=6>Color can be transferred from one object to another.</font></b>,m,Mechanics,Momentum,FALSE,FALSE,FALSE,TRUE,1,NA,no
8009,html-keyboard-response,6,1,2.0.0,33359,p3zzounw3z0,hyena,<b><font size=6>Constant speed requires constant acceleration.</font></b>,m,Mechanics,Acceleration,FALSE,FALSE,FALSE,TRUE,1,NA,n/a
5269,html-keyboard-response,7,2,2.0.0,39132,p3zzounw3z0,hyena,<b><font size=6>A moving bullet loses height.</font></b>,z,Mechanics,Velocity,FALSE,TRUE,TRUE,TRUE,1,NA,n/a
4965,html-keyboard-response,8,3,2.0.0,44603,p3zzounw3z0,hyena,<b><font size=6>Anvils fall through air faster than feathers.</font></b>,z,Mechanics,Gravity,TRUE,TRUE,TRUE,TRUE,1,NA,n/a
7651,html-keyboard-response,9,4,2.0.0,52766,p3zzounw3z0,hyena,<b><font size=6>A moving bullet loses speed.</font></b>,m,Mechanics,Velocity,TRUE,TRUE,TRUE,FALSE,0,NA,n/a
2567,html-keyboard-response,10,5,2.0.0,55848,p3zzounw3z0,hyena,<b><font size=6>Forces can be male or female.</font></b>,m,Mechanics,Force,FALSE,FALSE,FALSE,TRUE,1,NA,n/a
3495,html-keyboard-response,11,6,2.0.0,59847,p3zzounw3z0,hyena,<b><font size=6>Energy can be transferred from one object to another.</font></b>,z,Mechanics,Momentum,FALSE,TRUE,TRUE,TRUE,1,NA,n/a
7467,html-keyboard-response,12,7,2.0.0,67832,p3zzounw3z0,hyena,<b><font size=6>Forces can be straight or curved.</font></b>,z,Mechanics,Force,TRUE,FALSE,FALSE,FALSE,0,NA,n/a
4343,html-keyboard-response,13,8,2.0.0,72686,p3zzounw3z0,hyena,<b><font size=6>Color can be transferred from one object to another.</font></b>,z,Mechanics,Momentum,FALSE,FALSE,FALSE,FALSE,0,NA,n/a
6606,html-keyboard-response,14,9,2.0.0,79805,p3zzounw3z0,hyena,<b><font size=6>Constant acceleration requires constant force.</font></b>,z,Mechanics,Acceleration,TRUE,TRUE,TRUE,TRUE,1,NA,n/a
26815,html-keyboard-response,15,10,2.0.0,107132,p3zzounw3z0,hyena,<b><font size=6>Constant motion requires constant force.</font></b>,z,Mechanics,Acceleration,TRUE,FALSE,FALSE,FALSE,0,NA,n/a
5285,html-keyboard-response,16,11,2.0.0,112919,p3zzounw3z0,hyena,<b><font size=6>A moving bullet loses force.</font></b>,m,Mechanics,Velocity,TRUE,FALSE,FALSE,TRUE,1,NA,n/a
8245,html-keyboard-response,17,12,2.0.0,121680,p3zzounw3z0,hyena,<b><font size=6>Constant force can yield constant rest.</font></b>,m,Mechanics,Acceleration,FALSE,TRUE,TRUE,FALSE,0,NA,n/a
5513,html-keyboard-response,18,13,2.0.0,127709,p3zzounw3z0,hyena,<b><font size=6>A moving bullet loses weight.</font></b>,m,Mechanics,Velocity,FALSE,FALSE,FALSE,TRUE,1,NA,n/a
7012,html-keyboard-response,19,14,2.0.0,135232,p3zzounw3z0,hyena,<b><font size=6>Pointy objects fall through air faster than flat objects.</font></b>,z,Mechanics,Gravity,FALSE,TRUE,TRUE,TRUE,1,NA,n/a
11951,html-keyboard-response,20,15,2.0.0,147685,p3zzounw3z0,hyena,<b><font size=6>Forces can be transferred from one object to another.</font></b>,z,Mechanics,Momentum,TRUE,FALSE,FALSE,FALSE,0,NA,n/a
4557,html-keyboard-response,21,16,2.0.0,152744,p3zzounw3z0,hyena,<b><font size=6>Momentum can be transferred from one object to another.</font></b>,m,Mechanics,Momentum,TRUE,TRUE,TRUE,FALSE,0,NA,n/a
2928,html-keyboard-response,22,17,2.0.0,156176,p3zzounw3z0,hyena,<b><font size=6>Forces can be strong or weak.</font></b>,m,Mechanics,Force,TRUE,TRUE,TRUE,FALSE,0,NA,n/a
4997,html-keyboard-response,23,18,2.0.0,161686,p3zzounw3z0,hyena,<b><font size=6>Heavy balls fall through air faster than light balls.</font></b>,z,Mechanics,Gravity,TRUE,FALSE,FALSE,FALSE,0,NA,n/a
3872,html-keyboard-response,24,19,2.0.0,166067,p3zzounw3z0,hyena,<b><font size=6>Forces can be balanced or unbalanced.</font></b>,z,Mechanics,Force,FALSE,TRUE,TRUE,TRUE,1,NA,n/a
4028,html-keyboard-response,25,20,2.0.0,170597,p3zzounw3z0,hyena,<b><font size=6>Bright objects fall through air faster than dark objects.</font></b>,m,Mechanics,Gravity,FALSE,FALSE,FALSE,TRUE,1,NA,n/a
11243,html-keyboard-response,27,21,2.0.0,184557,p3zzounw3z0,hyena,<b><font size=6>Sunshine contains germs.</font></b>,m,Germs,Contamination,FALSE,FALSE,FALSE,TRUE,1,NA,n/a
2978,html-keyboard-response,28,22,2.0.0,188048,p3zzounw3z0,hyena,<b><font size=6>Being sneezed on can make a person sick.</font></b>,z,Germs,Contagion,TRUE,TRUE,TRUE,TRUE,1,NA,n/a
3294,html-keyboard-response,29,23,2.0.0,191849,p3zzounw3z0,hyena,<b><font size=6>Being depressed can make a person sick.</font></b>,z,Germs,Contagion,FALSE,TRUE,TRUE,TRUE,1,NA,n/a
4294,html-keyboard-response,30,24,2.0.0,196648,p3zzounw3z0,hyena,<b><font size=6>Germs have an odor.</font></b>,m,Germs,Microbe,TRUE,FALSE,FALSE,TRUE,1,NA,n/a
4382,html-keyboard-response,31,25,2.0.0,201538,p3zzounw3z0,hyena,<b><font size=6>Being cold can make a person sick.</font></b>,z,Germs,Contagion,TRUE,FALSE,FALSE,FALSE,0,NA,n/a
6246,html-keyboard-response,32,26,2.0.0,208293,p3zzounw3z0,hyena,<b><font size=6>Germs have DNA.</font></b>,m,Germs,Microbe,FALSE,TRUE,TRUE,FALSE,0,NA,n/a
1672,html-keyboard-response,33,27,2.0.0,210483,p3zzounw3z0,hyena,<b><font size=6>Germs have feelings.</font></b>,m,Germs,Microbe,FALSE,FALSE,FALSE,TRUE,1,NA,n/a
6122,html-keyboard-response,34,28,2.0.0,217115,p3zzounw3z0,hyena,<b><font size=6>Germs enter the body through cuts.</font></b>,z,Germs,Infection,TRUE,TRUE,TRUE,TRUE,1,NA,n/a
6443,html-keyboard-response,35,29,2.0.0,224064,p3zzounw3z0,hyena,<b><font size=6>Being happy can make a person sick.</font></b>,m,Germs,Contagion,FALSE,FALSE,FALSE,TRUE,1,NA,n/a
3373,html-keyboard-response,36,30,2.0.0,227946,p3zzounw3z0,hyena,<b><font size=6>Rotting meat contains germs.</font></b>,z,Germs,Contamination,TRUE,TRUE,TRUE,TRUE,1,NA,n/a
1968,html-keyboard-response,37,31,2.0.0,230420,p3zzounw3z0,hyena,<b><font size=6>Germs enter the body through the eyes.</font></b>,z,Germs,Infection,FALSE,TRUE,TRUE,TRUE,1,NA,n/a
1093,html-keyboard-response,38,32,2.0.0,232016,p3zzounw3z0,hyena,<b><font size=6>Germs enter the body through the skin.</font></b>,z,Germs,Infection,TRUE,FALSE,FALSE,FALSE,0,NA,n/a
12135,html-keyboard-response,39,33,2.0.0,244660,p3zzounw3z0,hyena,<b><font size=6>Heat kills germs.</font></b>,z,Germs,Sterilization,FALSE,TRUE,TRUE,TRUE,1,NA,n/a
2509,html-keyboard-response,40,34,2.0.0,247672,p3zzounw3z0,hyena,<b><font size=6>Kindness kills germs.</font></b>,m,Germs,Sterilization,FALSE,FALSE,FALSE,TRUE,1,NA,n/a
2317,html-keyboard-response,41,35,2.0.0,250501,p3zzounw3z0,hyena,<b><font size=6>Water kills germs.</font></b>,z,Germs,Sterilization,TRUE,FALSE,FALSE,FALSE,0,NA,n/a
2671,html-keyboard-response,42,36,2.0.0,253682,p3zzounw3z0,hyena,<b><font size=6>Dish sponges contain germs.</font></b>,z,Germs,Contamination,FALSE,TRUE,TRUE,TRUE,1,NA,n/a
2099,html-keyboard-response,43,37,2.0.0,256294,p3zzounw3z0,hyena,<b><font size=6>Germs have a shape.</font></b>,z,Germs,Microbe,TRUE,TRUE,TRUE,TRUE,1,NA,n/a
1895,html-keyboard-response,44,38,2.0.0,258706,p3zzounw3z0,hyena,<b><font size=6>Germs enter the body through the hair.</font></b>,z,Germs,Infection,FALSE,FALSE,FALSE,FALSE,0,NA,n/a
3313,html-keyboard-response,45,39,2.0.0,262523,p3zzounw3z0,hyena,<b><font size=6>Alcohol kills germs.</font></b>,z,Germs,Sterilization,TRUE,TRUE,TRUE,TRUE,1,NA,n/a
1173,html-keyboard-response,46,40,2.0.0,264204,p3zzounw3z0,hyena,<b><font size=6>Urine contains germs.</font></b>,z,Germs,Contamination,TRUE,FALSE,FALSE,FALSE,0,NA,n/a
7382,html-keyboard-response,48,41,2.0.0,274310,p3zzounw3z0,hyena,<b><font size=6>12/13 is greater than 1/13.</font></b>,z,Fractions,Ordering,TRUE,TRUE,TRUE,TRUE,1,NA,n/a
2704,html-keyboard-response,49,42,2.0.0,277527,p3zzounw3z0,hyena,<b><font size=6>All decimals are expressible as fractions.</font></b>,z,Fractions,Conversion,TRUE,TRUE,TRUE,TRUE,1,NA,n/a
6406,html-keyboard-response,50,43,2.0.0,284440,p3zzounw3z0,hyena,<b><font size=6>1/17 is greater than 1/9.</font></b>,m,Fractions,Ordering,TRUE,FALSE,FALSE,TRUE,1,NA,n/a
3519,html-keyboard-response,51,44,2.0.0,288470,p3zzounw3z0,hyena,<b><font size=6>There are numbers between 1/3 and 1/2.</font></b>,z,Fractions,Infinite density,FALSE,TRUE,TRUE,TRUE,1,NA,n/a
3765,html-keyboard-response,52,45,2.0.0,292746,p3zzounw3z0,hyena,<b><font size=6>1/17 is greater than 16/17.</font></b>,m,Fractions,Ordering,FALSE,FALSE,FALSE,TRUE,1,NA,n/a
3947,html-keyboard-response,53,46,2.0.0,297197,p3zzounw3z0,hyena,<b><font size=6>1/3 plus 1/3 is 2/3.</font></b>,z,Fractions,Addition,TRUE,TRUE,TRUE,TRUE,1,NA,n/a
2642,html-keyboard-response,54,47,2.0.0,300351,p3zzounw3z0,hyena,<b><font size=6>There are numbers between 10 and 10.</font></b>,z,Fractions,Infinite density,FALSE,FALSE,FALSE,FALSE,0,NA,n/a
7186,html-keyboard-response,55,48,2.0.0,308047,p3zzounw3z0,hyena,<b><font size=6>There are numbers between 1/10 and 10/100.</font></b>,m,Fractions,Infinite density,TRUE,FALSE,FALSE,TRUE,1,NA,n/a
3788,html-keyboard-response,56,49,2.0.0,312342,p3zzounw3z0,hyena,<b><font size=6>2/3 plus 2/4 is 2/7.</font></b>,m,Fractions,Addition,TRUE,FALSE,FALSE,TRUE,1,NA,n/a
2754,html-keyboard-response,57,50,2.0.0,315605,p3zzounw3z0,hyena,<b><font size=6>1/13 is greater than 1/30.</font></b>,z,Fractions,Ordering,FALSE,TRUE,TRUE,TRUE,1,NA,n/a
30132,html-keyboard-response,58,51,2.0.0,346249,p3zzounw3z0,hyena,<b><font size=6>All fractions are expressible as decimals.</font></b>,z,Fractions,Conversion,TRUE,FALSE,FALSE,FALSE,0,NA,n/a
4443,html-keyboard-response,59,52,2.0.0,351197,p3zzounw3z0,hyena,<b><font size=6>4 divided by 1/2 is 8.</font></b>,m,Fractions,Division,FALSE,TRUE,TRUE,FALSE,0,NA,n/a
6585,html-keyboard-response,60,53,2.0.0,358286,p3zzounw3z0,hyena,<b><font size=6>8 divided by 2/1 is 3.</font></b>,m,Fractions,Division,FALSE,FALSE,FALSE,TRUE,1,NA,n/a
2294,html-keyboard-response,61,54,2.0.0,361085,p3zzounw3z0,hyena,<b><font size=6>There are numbers between 1 and 3.</font></b>,z,Fractions,Infinite density,TRUE,TRUE,TRUE,TRUE,1,NA,n/a
2824,html-keyboard-response,62,55,2.0.0,364413,p3zzounw3z0,hyena,<b><font size=6>1/3 plus 1/3 is 1/3.</font></b>,m,Fractions,Addition,FALSE,FALSE,FALSE,TRUE,1,NA,n/a
7900,html-keyboard-response,63,56,2.0.0,372823,p3zzounw3z0,hyena,<b><font size=6>1/10 plus 1/10 is 1/5.</font></b>,z,Fractions,Addition,FALSE,TRUE,TRUE,TRUE,1,NA,n/a
4090,html-keyboard-response,64,57,2.0.0,377416,p3zzounw3z0,hyena,<b><font size=6>8 divided by 1/2 is 4.</font></b>,m,Fractions,Division,TRUE,FALSE,FALSE,TRUE,1,NA,n/a
3548,html-keyboard-response,65,58,2.0.0,381468,p3zzounw3z0,hyena,<b><font size=6>4 divided by 2/1 is 2.</font></b>,z,Fractions,Division,TRUE,TRUE,TRUE,TRUE,1,NA,n/a
8947,html-keyboard-response,66,59,2.0.0,390918,p3zzounw3z0,hyena,<b><font size=6>All integers are expressible as fractions.</font></b>,m,Fractions,Conversion,FALSE,TRUE,TRUE,FALSE,0,NA,n/a
1715,html-keyboard-response,67,60,2.0.0,393139,p3zzounw3z0,hyena,<b><font size=6>All fractions are expressible as integers.</font></b>,z,Fractions,Conversion,FALSE,FALSE,FALSE,FALSE,0,NA,n/a
7956,html-keyboard-response,69,61,2.0.0,403822,p3zzounw3z0,hyena,<b><font size=6>Genes that code for eye color can be found in tears.</font></b>,z,Genetics,Expression,TRUE,FALSE,FALSE,FALSE,0,NA,n/a
4422,html-keyboard-response,70,62,2.0.0,408751,p3zzounw3z0,hyena,<b><font size=6>Exercise can change one's genome.</font></b>,z,Genetics,Mutation,TRUE,FALSE,FALSE,FALSE,0,NA,n/a
2332,html-keyboard-response,71,63,2.0.0,411600,p3zzounw3z0,hyena,<b><font size=6>Sunscreen can change one's genome.</font></b>,z,Genetics,Mutation,FALSE,FALSE,FALSE,FALSE,0,NA,n/a
2316,html-keyboard-response,72,64,2.0.0,414418,p3zzounw3z0,hyena,<b><font size=6>Humans have more chromosomes than mosquitoes.</font></b>,z,Genetics,Chromosome,TRUE,TRUE,TRUE,TRUE,1,NA,n/a
3564,html-keyboard-response,73,65,2.0.0,418484,p3zzounw3z0,hyena,<b><font size=6>Radiation can change one's genome.</font></b>,z,Genetics,Mutation,TRUE,TRUE,TRUE,TRUE,1,NA,n/a
1627,html-keyboard-response,74,66,2.0.0,420623,p3zzounw3z0,hyena,<b><font size=6>Hair color is heritable.</font></b>,z,Genetics,Heritability,TRUE,TRUE,TRUE,TRUE,1,NA,n/a
2235,html-keyboard-response,75,67,2.0.0,423369,p3zzounw3z0,hyena,<b><font size=6>Genes that code for eye color can be found in the liver.</font></b>,m,Genetics,Expression,FALSE,TRUE,TRUE,FALSE,0,NA,n/a
2927,html-keyboard-response,76,68,2.0.0,426808,p3zzounw3z0,hyena,<b><font size=6>Two blue-eyed parents could have a brown-eyed baby.</font></b>,z,Genetics,Dominance,FALSE,FALSE,FALSE,FALSE,0,NA,n/a
5005,html-keyboard-response,77,69,2.0.0,432321,p3zzounw3z0,hyena,<b><font size=6>Genes that code for eye color can be found in the eye.</font></b>,z,Genetics,Expression,TRUE,TRUE,TRUE,TRUE,1,NA,n/a
8258,html-keyboard-response,78,70,2.0.0,441085,p3zzounw3z0,hyena,<b><font size=6>Men have more chromosomes than women.</font></b>,m,Genetics,Chromosome,FALSE,FALSE,FALSE,TRUE,1,NA,n/a
8080,html-keyboard-response,79,71,2.0.0,449683,p3zzounw3z0,hyena,<b><font size=6>Genes that code for eye color can be found in hair.</font></b>,m,Genetics,Expression,FALSE,FALSE,FALSE,TRUE,1,NA,n/a
3063,html-keyboard-response,80,72,2.0.0,453264,p3zzounw3z0,hyena,<b><font size=6>Viruses can change one's genome.</font></b>,z,Genetics,Mutation,FALSE,TRUE,TRUE,TRUE,1,NA,n/a
3054,html-keyboard-response,81,73,2.0.0,456820,p3zzounw3z0,hyena,<b><font size=6>Skin cells have more chromosomes than egg cells.</font></b>,z,Genetics,Chromosome,FALSE,TRUE,TRUE,TRUE,1,NA,n/a
5222,html-keyboard-response,82,74,2.0.0,462549,p3zzounw3z0,hyena,<b><font size=6>Adults have more chromosomes than children.</font></b>,m,Genetics,Chromosome,TRUE,FALSE,FALSE,TRUE,1,NA,n/a
2603,html-keyboard-response,83,75,2.0.0,465655,p3zzounw3z0,hyena,<b><font size=6>Two brown-eyed parents could have a blue-eyed baby.</font></b>,z,Genetics,Dominance,FALSE,TRUE,TRUE,TRUE,1,NA,n/a
2172,html-keyboard-response,84,76,2.0.0,468344,p3zzounw3z0,hyena,<b><font size=6>Two brown-eyed parents could have a brown-eyed baby.</font></b>,z,Genetics,Dominance,TRUE,TRUE,TRUE,TRUE,1,NA,n/a
7284,html-keyboard-response,85,77,2.0.0,476139,p3zzounw3z0,hyena,<b><font size=6>Immunity to chickenpox is heritable.</font></b>,z,Genetics,Heritability,TRUE,FALSE,FALSE,FALSE,0,NA,n/a
3924,html-keyboard-response,86,78,2.0.0,480572,p3zzounw3z0,hyena,<b><font size=6>Intelligence is heritable.</font></b>,m,Genetics,Heritability,FALSE,TRUE,TRUE,FALSE,0,NA,n/a
4365,html-keyboard-response,87,79,2.0.0,485443,p3zzounw3z0,hyena,<b><font size=6>A blue-eyed baby must have two blue-eyed parents.</font></b>,m,Genetics,Dominance,TRUE,FALSE,FALSE,TRUE,1,NA,n/a
1862,html-keyboard-response,88,80,2.0.0,487812,p3zzounw3z0,hyena,<b><font size=6>Pierced ears are heritable.</font></b>,m,Genetics,Heritability,FALSE,FALSE,FALSE,TRUE,1,NA,n/a
12095,html-keyboard-response,90,81,2.0.0,502629,p3zzounw3z0,hyena,<b><font size=6>Boiling water has a lower temperature than steam.</font></b>,m,Thermodynamics,Temperature,FALSE,TRUE,TRUE,FALSE,0,NA,n/a
17634,html-keyboard-response,91,82,2.0.0,520770,p3zzounw3z0,hyena,<b><font size=6>Ice has a lower temperature than water.</font></b>,z,Thermodynamics,Temperature,TRUE,TRUE,TRUE,TRUE,1,NA,n/a
3305,html-keyboard-response,92,83,2.0.0,524584,p3zzounw3z0,hyena,<b><font size=6>Pressure produces heat.</font></b>,z,Thermodynamics,Heat source,FALSE,TRUE,TRUE,TRUE,1,NA,n/a
1571,html-keyboard-response,93,84,2.0.0,526662,p3zzounw3z0,hyena,<b><font size=6>Atoms have heat.</font></b>,z,Thermodynamics,Heat,TRUE,FALSE,FALSE,FALSE,0,NA,n/a
4339,html-keyboard-response,94,85,2.0.0,531518,p3zzounw3z0,hyena,<b><font size=6>Heat increases an object's size.</font></b>,z,Thermodynamics,Thermal expansion,FALSE,TRUE,TRUE,TRUE,1,NA,n/a
3239,html-keyboard-response,95,86,2.0.0,535275,p3zzounw3z0,hyena,<b><font size=6>Ice has heat.</font></b>,m,Thermodynamics,Heat,FALSE,TRUE,TRUE,FALSE,0,NA,n/a
1605,html-keyboard-response,96,87,2.0.0,537387,p3zzounw3z0,hyena,<b><font size=6>Rain produces heat.</font></b>,m,Thermodynamics,Heat source,FALSE,FALSE,FALSE,TRUE,1,NA,n/a
8462,html-keyboard-response,97,88,2.0.0,546352,p3zzounw3z0,hyena,<b><font size=6>Cold objects transfer heat to even colder objects.</font></b>,z,Thermodynamics,Heat transfer,FALSE,TRUE,TRUE,TRUE,1,NA,n/a
1443,html-keyboard-response,98,89,2.0.0,548299,p3zzounw3z0,hyena,<b><font size=6>Ovens produce heat.</font></b>,z,Thermodynamics,Heat source,TRUE,TRUE,TRUE,TRUE,1,NA,n/a
2928,html-keyboard-response,99,90,2.0.0,551734,p3zzounw3z0,hyena,<b><font size=6>Water transfers heat to steam.</font></b>,z,Thermodynamics,Heat transfer,TRUE,FALSE,FALSE,FALSE,0,NA,n/a
8661,html-keyboard-response,100,91,2.0.0,560904,p3zzounw3z0,hyena,<b><font size=6>Two cups of ice have a lower temperature than one.</font></b>,m,Thermodynamics,Temperature,TRUE,FALSE,FALSE,TRUE,1,NA,n/a
1248,html-keyboard-response,101,92,2.0.0,562658,p3zzounw3z0,hyena,<b><font size=6>The sun has heat.</font></b>,z,Thermodynamics,Heat,TRUE,TRUE,TRUE,TRUE,1,NA,n/a
7126,html-keyboard-response,102,93,2.0.0,570294,p3zzounw3z0,hyena,<b><font size=6>Gravity has heat.</font></b>,z,Thermodynamics,Heat,FALSE,FALSE,FALSE,FALSE,0,NA,n/a
3363,html-keyboard-response,103,94,2.0.0,574160,p3zzounw3z0,hyena,<b><font size=6>Heat increases an object's temperature.</font></b>,z,Thermodynamics,Thermal expansion,TRUE,TRUE,TRUE,TRUE,1,NA,n/a
7862,html-keyboard-response,104,95,2.0.0,582525,p3zzounw3z0,hyena,<b><font size=6>Cold objects transfer heat to warm objects.</font></b>,m,Thermodynamics,Heat transfer,FALSE,FALSE,FALSE,TRUE,1,NA,n/a
3870,html-keyboard-response,105,96,2.0.0,586913,p3zzounw3z0,hyena,<b><font size=6>Steam has a lower temperature than ice.</font></b>,m,Thermodynamics,Temperature,FALSE,FALSE,FALSE,TRUE,1,NA,n/a
8171,html-keyboard-response,106,97,2.0.0,595593,p3zzounw3z0,hyena,<b><font size=6>Heat increases an object's color.</font></b>,z,Thermodynamics,Thermal expansion,FALSE,FALSE,FALSE,FALSE,0,NA,n/a
1737,html-keyboard-response,107,98,2.0.0,597835,p3zzounw3z0,hyena,<b><font size=6>Coats produce heat.</font></b>,z,Thermodynamics,Heat source,TRUE,FALSE,FALSE,FALSE,0,NA,n/a
27479,html-keyboard-response,108,99,2.0.0,625818,p3zzounw3z0,hyena,<b><font size=6>Water transfers heat to ice.</font></b>,z,Thermodynamics,Heat transfer,TRUE,TRUE,TRUE,TRUE,1,NA,n/a
6769,html-keyboard-response,109,100,2.0.0,633091,p3zzounw3z0,hyena,<b><font size=6>Heat increases an object's weight.</font></b>,z,Thermodynamics,Thermal expansion,TRUE,FALSE,FALSE,FALSE,0,NA,n/a
5044,html-keyboard-response,6,1,2.0.0,24852,p5znj4obf4y,2341,<b><font size=6>Immunity to chickenpox is heritable.</font></b>,m,Genetics,Heritability,TRUE,FALSE,FALSE,TRUE,1,NA,NA
2429,html-keyboard-response,7,2,2.0.0,27782,p5znj4obf4y,2341,<b><font size=6>Radiation can change one's genome.</font></b>,z,Genetics,Mutation,TRUE,TRUE,TRUE,TRUE,1,NA,NA
2085,html-keyboard-response,8,3,2.0.0,30369,p5znj4obf4y,2341,<b><font size=6>Viruses can change one's genome.</font></b>,z,Genetics,Mutation,FALSE,TRUE,TRUE,TRUE,1,NA,NA
2167,html-keyboard-response,9,4,2.0.0,33037,p5znj4obf4y,2341,<b><font size=6>Pierced ears are heritable.</font></b>,m,Genetics,Heritability,FALSE,FALSE,FALSE,TRUE,1,NA,NA
2422,html-keyboard-response,10,5,2.0.0,35961,p5znj4obf4y,2341,<b><font size=6>Hair color is heritable.</font></b>,z,Genetics,Heritability,TRUE,TRUE,TRUE,TRUE,1,NA,NA
5527,html-keyboard-response,11,6,2.0.0,41990,p5znj4obf4y,2341,<b><font size=6>Genes that code for eye color can be found in the eye.</font></b>,z,Genetics,Expression,TRUE,TRUE,TRUE,TRUE,1,NA,NA
3758,html-keyboard-response,12,7,2.0.0,46250,p5znj4obf4y,2341,<b><font size=6>Skin cells have more chromosomes than egg cells.</font></b>,z,Genetics,Chromosome,FALSE,TRUE,TRUE,TRUE,1,NA,NA
4349,html-keyboard-response,13,8,2.0.0,51101,p5znj4obf4y,2341,<b><font size=6>Two brown-eyed parents could have a brown-eyed baby.</font></b>,z,Genetics,Dominance,TRUE,TRUE,TRUE,TRUE,1,NA,NA
3146,html-keyboard-response,14,9,2.0.0,54749,p5znj4obf4y,2341,<b><font size=6>A blue-eyed baby must have two blue-eyed parents.</font></b>,m,Genetics,Dominance,TRUE,FALSE,FALSE,TRUE,1,NA,NA
2795,html-keyboard-response,15,10,2.0.0,58045,p5znj4obf4y,2341,<b><font size=6>Humans have more chromosomes than mosquitoes.</font></b>,m,Genetics,Chromosome,TRUE,TRUE,TRUE,FALSE,0,NA,NA
3024,html-keyboard-response,16,11,2.0.0,61571,p5znj4obf4y,2341,<b><font size=6>Adults have more chromosomes than children.</font></b>,m,Genetics,Chromosome,TRUE,FALSE,FALSE,TRUE,1,NA,NA
5890,html-keyboard-response,17,12,2.0.0,67964,p5znj4obf4y,2341,<b><font size=6>Men have more chromosomes than women.</font></b>,m,Genetics,Chromosome,FALSE,FALSE,FALSE,TRUE,1,NA,NA
2846,html-keyboard-response,18,13,2.0.0,71311,p5znj4obf4y,2341,<b><font size=6>Genes that code for eye color can be found in the liver.</font></b>,z,Genetics,Expression,FALSE,TRUE,TRUE,TRUE,1,NA,NA
1957,html-keyboard-response,19,14,2.0.0,73769,p5znj4obf4y,2341,<b><font size=6>Two blue-eyed parents could have a brown-eyed baby.</font></b>,z,Genetics,Dominance,FALSE,FALSE,FALSE,FALSE,0,NA,NA
3940,html-keyboard-response,20,15,2.0.0,78210,p5znj4obf4y,2341,<b><font size=6>Two brown-eyed parents could have a blue-eyed baby.</font></b>,z,Genetics,Dominance,FALSE,TRUE,TRUE,TRUE,1,NA,NA
5052,html-keyboard-response,21,16,2.0.0,83762,p5znj4obf4y,2341,<b><font size=6>Exercise can change one's genome.</font></b>,z,Genetics,Mutation,TRUE,FALSE,FALSE,FALSE,0,NA,NA
3541,html-keyboard-response,22,17,2.0.0,87805,p5znj4obf4y,2341,<b><font size=6>Intelligence is heritable.</font></b>,z,Genetics,Heritability,FALSE,TRUE,TRUE,TRUE,1,NA,NA
3114,html-keyboard-response,23,18,2.0.0,91420,p5znj4obf4y,2341,<b><font size=6>Genes that code for eye color can be found in tears.</font></b>,m,Genetics,Expression,TRUE,FALSE,FALSE,TRUE,1,NA,NA
2661,html-keyboard-response,24,19,2.0.0,94582,p5znj4obf4y,2341,<b><font size=6>Sunscreen can change one's genome.</font></b>,m,Genetics,Mutation,FALSE,FALSE,FALSE,TRUE,1,NA,NA
2900,html-keyboard-response,25,20,2.0.0,97984,p5znj4obf4y,2341,<b><font size=6>Genes that code for eye color can be found in hair.</font></b>,z,Genetics,Expression,FALSE,FALSE,FALSE,FALSE,0,NA,NA
3466,html-keyboard-response,27,21,2.0.0,104157,p5znj4obf4y,2341,<b><font size=6>Foam is denser than brick.</font></b>,m,Matter,Density,FALSE,FALSE,FALSE,TRUE,1,NA,NA
2375,html-keyboard-response,28,22,2.0.0,107032,p5znj4obf4y,2341,<b><font size=6>Atoms are visible to the naked eye.</font></b>,m,Matter,Atom,FALSE,FALSE,FALSE,TRUE,1,NA,NA
3054,html-keyboard-response,29,23,2.0.0,110588,p5znj4obf4y,2341,<b><font size=6>A cold penny is denser than a hot penny.</font></b>,z,Matter,Density,FALSE,TRUE,TRUE,TRUE,1,NA,NA
6807,html-keyboard-response,30,24,2.0.0,117897,p5znj4obf4y,2341,<b><font size=6>Atoms are mostly empty space.</font></b>,z,Matter,Atom,FALSE,TRUE,TRUE,TRUE,1,NA,NA
2878,html-keyboard-response,31,25,2.0.0,121276,p5znj4obf4y,2341,<b><font size=6>Fire is composed of matter.</font></b>,z,Matter,Mass,TRUE,FALSE,FALSE,FALSE,0,NA,NA
5922,html-keyboard-response,32,26,2.0.0,127699,p5znj4obf4y,2341,<b><font size=6>An idea can be cut in half.</font></b>,m,Matter,Divisibility,FALSE,FALSE,FALSE,TRUE,1,NA,NA
2339,html-keyboard-response,33,27,2.0.0,130541,p5znj4obf4y,2341,<b><font size=6>Rocks are composed of matter.</font></b>,z,Matter,Mass,TRUE,TRUE,TRUE,TRUE,1,NA,NA
2140,html-keyboard-response,34,28,2.0.0,133183,p5znj4obf4y,2341,<b><font size=6>Atoms are weightless.</font></b>,m,Matter,Atom,TRUE,FALSE,FALSE,TRUE,1,NA,NA
2294,html-keyboard-response,35,29,2.0.0,135978,p5znj4obf4y,2341,<b><font size=6>Air is composed of matter.</font></b>,m,Matter,Mass,FALSE,TRUE,TRUE,FALSE,0,NA,NA
1561,html-keyboard-response,36,30,2.0.0,138041,p5znj4obf4y,2341,<b><font size=6>Numbers are composed of matter.</font></b>,m,Matter,Mass,FALSE,FALSE,FALSE,TRUE,1,NA,NA
3788,html-keyboard-response,37,31,2.0.0,142330,p5znj4obf4y,2341,<b><font size=6>A pound of steel weighs more than a pound of feathers.</font></b>,z,Matter,Weight,TRUE,FALSE,FALSE,FALSE,0,NA,NA
1572,html-keyboard-response,38,32,2.0.0,144404,p5znj4obf4y,2341,<b><font size=6>A log can be cut in half.</font></b>,z,Matter,Divisibility,TRUE,TRUE,TRUE,TRUE,1,NA,NA
1535,html-keyboard-response,39,33,2.0.0,146441,p5znj4obf4y,2341,<b><font size=6>Ice is denser than water.</font></b>,z,Matter,Density,TRUE,FALSE,FALSE,FALSE,0,NA,NA
3522,html-keyboard-response,40,34,2.0.0,150466,p5znj4obf4y,2341,<b><font size=6>A liter of water weighs more than a liter of air.</font></b>,z,Matter,Weight,TRUE,TRUE,TRUE,TRUE,1,NA,NA
3204,html-keyboard-response,41,35,2.0.0,154172,p5znj4obf4y,2341,<b><font size=6>A grain of sand can be cut in half.</font></b>,z,Matter,Divisibility,FALSE,TRUE,TRUE,TRUE,1,NA,NA
1823,html-keyboard-response,42,36,2.0.0,156497,p5znj4obf4y,2341,<b><font size=6>Steel is denser than foam.</font></b>,z,Matter,Density,TRUE,TRUE,TRUE,TRUE,1,NA,NA
1825,html-keyboard-response,43,37,2.0.0,158823,p5znj4obf4y,2341,<b><font size=6>Atoms are the constituents of matter.</font></b>,z,Matter,Atom,TRUE,TRUE,TRUE,TRUE,1,NA,NA
2088,html-keyboard-response,44,38,2.0.0,161413,p5znj4obf4y,2341,<b><font size=6>A liter of water weighs more than a liter of ice.</font></b>,z,Matter,Weight,FALSE,TRUE,TRUE,TRUE,1,NA,NA
1565,html-keyboard-response,45,39,2.0.0,163479,p5znj4obf4y,2341,<b><font size=6>A shadow can be cut in half.</font></b>,m,Matter,Divisibility,TRUE,FALSE,FALSE,TRUE,1,NA,NA
3048,html-keyboard-response,46,40,2.0.0,167029,p5znj4obf4y,2341,<b><font size=6>A pound of steel weighs more than a ton of steel.</font></b>,m,Matter,Weight,FALSE,FALSE,FALSE,TRUE,1,NA,NA
9384,html-keyboard-response,48,41,2.0.0,179117,p5znj4obf4y,2341,<b><font size=6>Most organisms die before leaving offspring.</font></b>,m,Evolution,Selection,FALSE,TRUE,TRUE,FALSE,0,NA,NA
4834,html-keyboard-response,49,42,2.0.0,184452,p5znj4obf4y,2341,<b><font size=6>Humans are more closely related to apes than monkeys.</font></b>,z,Evolution,Common ancestry,TRUE,TRUE,TRUE,TRUE,1,NA,NA
7047,html-keyboard-response,50,43,2.0.0,192000,p5znj4obf4y,2341,<b><font size=6>Apes are more closely related to monkeys than humans.</font></b>,z,Evolution,Common ancestry,TRUE,FALSE,FALSE,FALSE,0,NA,NA
3205,html-keyboard-response,51,44,2.0.0,195706,p5znj4obf4y,2341,<b><font size=6>Individual organisms evolve.</font></b>,z,Evolution,Adaptation,TRUE,FALSE,FALSE,FALSE,0,NA,NA
1246,html-keyboard-response,52,45,2.0.0,197454,p5znj4obf4y,2341,<b><font size=6>Biological species evolve.</font></b>,z,Evolution,Adaptation,TRUE,TRUE,TRUE,TRUE,1,NA,NA
1709,html-keyboard-response,53,46,2.0.0,199665,p5znj4obf4y,2341,<b><font size=6>Evolution requires long periods of time.</font></b>,z,Evolution,Variation,TRUE,FALSE,FALSE,FALSE,0,NA,NA
3322,html-keyboard-response,54,47,2.0.0,203488,p5znj4obf4y,2341,<b><font size=6>Humans are descended from sea-dwelling creatures.</font></b>,m,Evolution,Phylogeny,FALSE,TRUE,TRUE,FALSE,0,NA,NA
2789,html-keyboard-response,55,48,2.0.0,206780,p5znj4obf4y,2341,<b><font size=6>Computer viruses evolve.</font></b>,z,Evolution,Adaptation,FALSE,TRUE,TRUE,TRUE,1,NA,NA
3058,html-keyboard-response,56,49,2.0.0,210340,p5znj4obf4y,2341,<b><font size=6>Whales are more closely related to plants than fish.</font></b>,m,Evolution,Common ancestry,FALSE,FALSE,FALSE,TRUE,1,NA,NA
2038,html-keyboard-response,57,50,2.0.0,212879,p5znj4obf4y,2341,<b><font size=6>Most organisms have plenty to eat.</font></b>,m,Evolution,Selection,TRUE,FALSE,FALSE,TRUE,1,NA,NA
3818,html-keyboard-response,58,51,2.0.0,217198,p5znj4obf4y,2341,<b><font size=6>Evolution requires differential survival.</font></b>,m,Evolution,Variation,TRUE,TRUE,TRUE,FALSE,0,NA,NA
3486,html-keyboard-response,59,52,2.0.0,221186,p5znj4obf4y,2341,<b><font size=6>Humans are descended from plants.</font></b>,m,Evolution,Phylogeny,FALSE,FALSE,FALSE,TRUE,1,NA,NA
1857,html-keyboard-response,60,53,2.0.0,223545,p5znj4obf4y,2341,<b><font size=6>Whales are more closely related to humans than fish.</font></b>,m,Evolution,Common ancestry,FALSE,TRUE,TRUE,FALSE,0,NA,NA
2682,html-keyboard-response,61,54,2.0.0,226729,p5znj4obf4y,2341,<b><font size=6>Evolution requires climate stability.</font></b>,m,Evolution,Variation,FALSE,FALSE,FALSE,TRUE,1,NA,NA
7585,html-keyboard-response,62,55,2.0.0,234816,p5znj4obf4y,2341,<b><font size=6>Humans are descended from tree-dwelling creatures.</font></b>,z,Evolution,Phylogeny,TRUE,TRUE,TRUE,TRUE,1,NA,NA
2794,html-keyboard-response,63,56,2.0.0,238111,p5znj4obf4y,2341,<b><font size=6>Humans are descended from chimpanzees.</font></b>,m,Evolution,Phylogeny,TRUE,FALSE,FALSE,TRUE,1,NA,NA
3126,html-keyboard-response,64,57,2.0.0,241738,p5znj4obf4y,2341,<b><font size=6>Most organisms live in temperate climates.</font></b>,m,Evolution,Selection,FALSE,FALSE,FALSE,TRUE,1,NA,NA
2518,html-keyboard-response,65,58,2.0.0,244758,p5znj4obf4y,2341,<b><font size=6>Most organisms are adapted to their environment.</font></b>,z,Evolution,Selection,TRUE,TRUE,TRUE,TRUE,1,NA,NA
2619,html-keyboard-response,66,59,2.0.0,247879,p5znj4obf4y,2341,<b><font size=6>Inanimate objects evolve.</font></b>,m,Evolution,Adaptation,FALSE,FALSE,FALSE,TRUE,1,NA,NA
2984,html-keyboard-response,67,60,2.0.0,251363,p5znj4obf4y,2341,<b><font size=6>Evolution requires within-species variation.</font></b>,z,Evolution,Variation,FALSE,TRUE,TRUE,TRUE,1,NA,NA
2320,html-keyboard-response,69,61,2.0.0,256388,p5znj4obf4y,2341,<b><font size=6>Kindness kills germs.</font></b>,m,Germs,Sterilization,FALSE,FALSE,FALSE,TRUE,1,NA,NA
1681,html-keyboard-response,70,62,2.0.0,258570,p5znj4obf4y,2341,<b><font size=6>Being sneezed on can make a person sick.</font></b>,z,Germs,Contagion,TRUE,TRUE,TRUE,TRUE,1,NA,NA
1915,html-keyboard-response,71,63,2.0.0,260988,p5znj4obf4y,2341,<b><font size=6>Dish sponges contain germs.</font></b>,z,Germs,Contamination,FALSE,TRUE,TRUE,TRUE,1,NA,NA
1652,html-keyboard-response,72,64,2.0.0,263141,p5znj4obf4y,2341,<b><font size=6>Germs have DNA.</font></b>,z,Germs,Microbe,FALSE,TRUE,TRUE,TRUE,1,NA,NA
