success,rt,trial_type,trial_index,plugin_version,time_elapsed,random_id,participant,stimulus,response,Category,Concept,T1,T2,CorrectAnswer,correct,reflection1,reflection2,file_name
TRUE,2233,fullscreen,0,null,3239,p03mqyeeyqu,seal,NA,NA,NA,NA,NA,NA,NA,NA,NA,NA,/Users/martincz/GitHub/COGS119/group_fa24_naive_theories/analysis/../data/raw_data/p03mqyeeyqu_1732223212566.csv
NA,1207,html-keyboard-response,1,2.0.0,4448,p03mqyeeyqu,seal,This trial will be in fullscreen mode. Press any key to begin.,NA,NA,NA,NA,NA,NA,NA,NA,NA,/Users/martincz/GitHub/COGS119/group_fa24_naive_theories/analysis/../data/raw_data/p03mqyeeyqu_1732223212566.csv
NA,1007,html-keyboard-response,2,2.0.0,5956,p03mqyeeyqu,seal,Welcome to the experiment. Press any key to begin.,NA,NA,NA,NA,NA,NA,NA,NA,NA,/Users/martincz/GitHub/COGS119/group_fa24_naive_theories/analysis/../data/raw_data/p03mqyeeyqu_1732223212566.csv
NA,2984,survey-text,3,2.0.0,9444,p03mqyeeyqu,seal,NA,"{""participant_id"":""seal""}",NA,NA,NA,NA,NA,NA,NA,NA,/Users/martincz/GitHub/COGS119/group_fa24_naive_theories/analysis/../data/raw_data/p03mqyeeyqu_1732223212566.csv
NA,7829,html-keyboard-response,4,2.0.0,17774,p03mqyeeyqu,seal,"<p>Welcome to the experiment!</p><p>In this task, you will see a series of scientific statements.</p><p>Your job is to decide whether each statement is true or false.</p><p>Press 'z' if you think the statement is true and 'm' if you think it is false.</p><p>Press any key to begin.</p>",NA,NA,NA,NA,NA,NA,NA,NA,NA,/Users/martincz/GitHub/COGS119/group_fa24_naive_theories/analysis/../data/raw_data/p03mqyeeyqu_1732223212566.csv
NA,NA,html-keyboard-response,5,2.0.0,19477,p03mqyeeyqu,seal,<p><font-size=6>All the following statements are in category:</font></p><b><font size=10><font color=blue>Waves</font></b>,null,NA,NA,NA,NA,NA,NA,NA,NA,/Users/martincz/GitHub/COGS119/group_fa24_naive_theories/analysis/../data/raw_data/p03mqyeeyqu_1732223212566.csv
NA,5078,html-keyboard-response,6,2.0.0,25058,p03mqyeeyqu,seal,<b><font size=6>Mirrors reflect sound.</font></b>,z,Waves,Reflection,FALSE,TRUE,TRUE,TRUE,NA,NA,/Users/martincz/GitHub/COGS119/group_fa24_naive_theories/analysis/../data/raw_data/p03mqyeeyqu_1732223212566.csv
NA,4744,html-keyboard-response,7,2.0.0,30303,p03mqyeeyqu,seal,<b><font size=6>Sounds can be dead or alive.</font></b>,z,Waves,Sound,FALSE,FALSE,FALSE,FALSE,NA,NA,/Users/martincz/GitHub/COGS119/group_fa24_naive_theories/analysis/../data/raw_data/p03mqyeeyqu_1732223212566.csv
NA,1860,html-keyboard-response,8,2.0.0,32664,p03mqyeeyqu,seal,<b><font size=6>Sounds can be near or far.</font></b>,z,Waves,Sound,TRUE,FALSE,FALSE,FALSE,NA,NA,/Users/martincz/GitHub/COGS119/group_fa24_naive_theories/analysis/../data/raw_data/p03mqyeeyqu_1732223212566.csv
NA,1534,html-keyboard-response,9,2.0.0,34700,p03mqyeeyqu,seal,<b><font size=6>Sound travels through metal.</font></b>,z,Waves,Propagation,FALSE,TRUE,TRUE,TRUE,NA,NA,/Users/martincz/GitHub/COGS119/group_fa24_naive_theories/analysis/../data/raw_data/p03mqyeeyqu_1732223212566.csv
NA,3237,html-keyboard-response,10,2.0.0,38439,p03mqyeeyqu,seal,<b><font size=6>Shadows contain all colors of light.</font></b>,z,Waves,Light,FALSE,FALSE,FALSE,FALSE,NA,NA,/Users/martincz/GitHub/COGS119/group_fa24_naive_theories/analysis/../data/raw_data/p03mqyeeyqu_1732223212566.csv
NA,2881,html-keyboard-response,11,2.0.0,41822,p03mqyeeyqu,seal,<b><font size=6>Red objects absorb red light.</font></b>,z,Waves,Color,TRUE,FALSE,FALSE,FALSE,NA,NA,/Users/martincz/GitHub/COGS119/group_fa24_naive_theories/analysis/../data/raw_data/p03mqyeeyqu_1732223212566.csv
NA,2898,html-keyboard-response,12,2.0.0,45222,p03mqyeeyqu,seal,<b><font size=6>Sounds can be direct or reflected.</font></b>,z,Waves,Sound,FALSE,TRUE,TRUE,TRUE,NA,NA,/Users/martincz/GitHub/COGS119/group_fa24_naive_theories/analysis/../data/raw_data/p03mqyeeyqu_1732223212566.csv
NA,1355,html-keyboard-response,13,2.0.0,47078,p03mqyeeyqu,seal,<b><font size=6>Sounds can be loud or quiet.</font></b>,z,Waves,Sound,TRUE,TRUE,TRUE,TRUE,NA,NA,/Users/martincz/GitHub/COGS119/group_fa24_naive_theories/analysis/../data/raw_data/p03mqyeeyqu_1732223212566.csv
NA,2083,html-keyboard-response,14,2.0.0,49662,p03mqyeeyqu,seal,<b><font size=6>Red objects reflect red light.</font></b>,z,Waves,Color,TRUE,TRUE,TRUE,TRUE,NA,NA,/Users/martincz/GitHub/COGS119/group_fa24_naive_theories/analysis/../data/raw_data/p03mqyeeyqu_1732223212566.csv
NA,2668,html-keyboard-response,15,2.0.0,52832,p03mqyeeyqu,seal,<b><font size=6>Sound travels through a vacuum.</font></b>,m,Waves,Propagation,TRUE,FALSE,FALSE,TRUE,NA,NA,/Users/martincz/GitHub/COGS119/group_fa24_naive_theories/analysis/../data/raw_data/p03mqyeeyqu_1732223212566.csv
NA,1116,html-keyboard-response,16,2.0.0,54450,p03mqyeeyqu,seal,<b><font size=6>Sound travels through air.</font></b>,z,Waves,Propagation,TRUE,TRUE,TRUE,TRUE,NA,NA,/Users/martincz/GitHub/COGS119/group_fa24_naive_theories/analysis/../data/raw_data/p03mqyeeyqu_1732223212566.csv
NA,3025,html-keyboard-response,17,2.0.0,57976,p03mqyeeyqu,seal,<b><font size=6>Foam reflects sound.</font></b>,z,Waves,Reflection,FALSE,FALSE,FALSE,FALSE,NA,NA,/Users/martincz/GitHub/COGS119/group_fa24_naive_theories/analysis/../data/raw_data/p03mqyeeyqu_1732223212566.csv
NA,2599,html-keyboard-response,18,2.0.0,61077,p03mqyeeyqu,seal,<b><font size=6>White light contains all colors of light.</font></b>,z,Waves,Light,FALSE,TRUE,TRUE,TRUE,NA,NA,/Users/martincz/GitHub/COGS119/group_fa24_naive_theories/analysis/../data/raw_data/p03mqyeeyqu_1732223212566.csv
NA,5096,html-keyboard-response,19,2.0.0,66675,p03mqyeeyqu,seal,<b><font size=6>Red objects absorb blue light.</font></b>,m,Waves,Color,FALSE,TRUE,TRUE,FALSE,NA,NA,/Users/martincz/GitHub/COGS119/group_fa24_naive_theories/analysis/../data/raw_data/p03mqyeeyqu_1732223212566.csv
NA,1666,html-keyboard-response,20,2.0.0,68843,p03mqyeeyqu,seal,<b><font size=6>Red objects reflect blue light.</font></b>,m,Waves,Color,FALSE,FALSE,FALSE,TRUE,NA,NA,/Users/martincz/GitHub/COGS119/group_fa24_naive_theories/analysis/../data/raw_data/p03mqyeeyqu_1732223212566.csv
NA,1073,html-keyboard-response,21,2.0.0,70416,p03mqyeeyqu,seal,<b><font size=6>Mirrors reflect light.</font></b>,z,Waves,Reflection,TRUE,TRUE,TRUE,TRUE,NA,NA,/Users/martincz/GitHub/COGS119/group_fa24_naive_theories/analysis/../data/raw_data/p03mqyeeyqu_1732223212566.csv
NA,1290,html-keyboard-response,22,2.0.0,72208,p03mqyeeyqu,seal,<b><font size=6>Black objects reflect all colors of light.</font></b>,z,Waves,Light,TRUE,FALSE,FALSE,FALSE,NA,NA,/Users/martincz/GitHub/COGS119/group_fa24_naive_theories/analysis/../data/raw_data/p03mqyeeyqu_1732223212566.csv
NA,1524,html-keyboard-response,23,2.0.0,74234,p03mqyeeyqu,seal,<b><font size=6>Sound travels through foam.</font></b>,z,Waves,Propagation,FALSE,FALSE,FALSE,FALSE,NA,NA,/Users/martincz/GitHub/COGS119/group_fa24_naive_theories/analysis/../data/raw_data/p03mqyeeyqu_1732223212566.csv
NA,1478,html-keyboard-response,24,2.0.0,76213,p03mqyeeyqu,seal,<b><font size=6>Prisms reflect light.</font></b>,z,Waves,Reflection,TRUE,FALSE,FALSE,FALSE,NA,NA,/Users/martincz/GitHub/COGS119/group_fa24_naive_theories/analysis/../data/raw_data/p03mqyeeyqu_1732223212566.csv
NA,7121,html-keyboard-response,25,2.0.0,83835,p03mqyeeyqu,seal,<b><font size=6>Rainbows contain all colors of light.</font></b>,z,Waves,Light,TRUE,TRUE,TRUE,TRUE,NA,NA,/Users/martincz/GitHub/COGS119/group_fa24_naive_theories/analysis/../data/raw_data/p03mqyeeyqu_1732223212566.csv
NA,NA,html-keyboard-response,26,2.0.0,86039,p03mqyeeyqu,seal,<p><font-size=6>All the following statements are in category:</font></p><b><font size=10><font color=blue>Thermodynamics</font></b>,null,NA,NA,NA,NA,NA,NA,NA,NA,/Users/martincz/GitHub/COGS119/group_fa24_naive_theories/analysis/../data/raw_data/p03mqyeeyqu_1732223212566.csv
NA,2092,html-keyboard-response,27,2.0.0,88632,p03mqyeeyqu,seal,<b><font size=6>Gravity has heat.</font></b>,z,Thermodynamics,Heat,FALSE,FALSE,FALSE,FALSE,NA,NA,/Users/martincz/GitHub/COGS119/group_fa24_naive_theories/analysis/../data/raw_data/p03mqyeeyqu_1732223212566.csv
NA,1621,html-keyboard-response,28,2.0.0,90755,p03mqyeeyqu,seal,<b><font size=6>Cold objects transfer heat to warm objects.</font></b>,z,Thermodynamics,Heat transfer,FALSE,FALSE,FALSE,FALSE,NA,NA,/Users/martincz/GitHub/COGS119/group_fa24_naive_theories/analysis/../data/raw_data/p03mqyeeyqu_1732223212566.csv
NA,3313,html-keyboard-response,29,2.0.0,94570,p03mqyeeyqu,seal,<b><font size=6>Boiling water has a lower temperature than steam.</font></b>,z,Thermodynamics,Temperature,FALSE,TRUE,TRUE,TRUE,NA,NA,/Users/martincz/GitHub/COGS119/group_fa24_naive_theories/analysis/../data/raw_data/p03mqyeeyqu_1732223212566.csv
NA,1679,html-keyboard-response,30,2.0.0,96750,p03mqyeeyqu,seal,<b><font size=6>Water transfers heat to steam.</font></b>,z,Thermodynamics,Heat transfer,TRUE,FALSE,FALSE,FALSE,NA,NA,/Users/martincz/GitHub/COGS119/group_fa24_naive_theories/analysis/../data/raw_data/p03mqyeeyqu_1732223212566.csv
NA,2436,html-keyboard-response,31,2.0.0,99688,p03mqyeeyqu,seal,<b><font size=6>Ice has a lower temperature than water.</font></b>,z,Thermodynamics,Temperature,TRUE,TRUE,TRUE,TRUE,NA,NA,/Users/martincz/GitHub/COGS119/group_fa24_naive_theories/analysis/../data/raw_data/p03mqyeeyqu_1732223212566.csv
NA,2968,html-keyboard-response,32,2.0.0,103158,p03mqyeeyqu,seal,<b><font size=6>Steam has a lower temperature than ice.</font></b>,m,Thermodynamics,Temperature,FALSE,FALSE,FALSE,TRUE,NA,NA,/Users/martincz/GitHub/COGS119/group_fa24_naive_theories/analysis/../data/raw_data/p03mqyeeyqu_1732223212566.csv
NA,1133,html-keyboard-response,33,2.0.0,104793,p03mqyeeyqu,seal,<b><font size=6>The sun has heat.</font></b>,z,Thermodynamics,Heat,TRUE,TRUE,TRUE,TRUE,NA,NA,/Users/martincz/GitHub/COGS119/group_fa24_naive_theories/analysis/../data/raw_data/p03mqyeeyqu_1732223212566.csv
NA,1156,html-keyboard-response,34,2.0.0,106451,p03mqyeeyqu,seal,<b><font size=6>Ovens produce heat.</font></b>,z,Thermodynamics,Heat source,TRUE,TRUE,TRUE,TRUE,NA,NA,/Users/martincz/GitHub/COGS119/group_fa24_naive_theories/analysis/../data/raw_data/p03mqyeeyqu_1732223212566.csv
NA,1132,html-keyboard-response,35,2.0.0,108084,p03mqyeeyqu,seal,<b><font size=6>Coats produce heat.</font></b>,z,Thermodynamics,Heat source,TRUE,FALSE,FALSE,FALSE,NA,NA,/Users/martincz/GitHub/COGS119/group_fa24_naive_theories/analysis/../data/raw_data/p03mqyeeyqu_1732223212566.csv
NA,3887,html-keyboard-response,36,2.0.0,112472,p03mqyeeyqu,seal,<b><font size=6>Heat increases an object's weight.</font></b>,z,Thermodynamics,Thermal expansion,TRUE,FALSE,FALSE,FALSE,NA,NA,/Users/martincz/GitHub/COGS119/group_fa24_naive_theories/analysis/../data/raw_data/p03mqyeeyqu_1732223212566.csv
NA,1855,html-keyboard-response,37,2.0.0,114829,p03mqyeeyqu,seal,<b><font size=6>Heat increases an object's color.</font></b>,z,Thermodynamics,Thermal expansion,FALSE,FALSE,FALSE,FALSE,NA,NA,/Users/martincz/GitHub/COGS119/group_fa24_naive_theories/analysis/../data/raw_data/p03mqyeeyqu_1732223212566.csv
NA,3184,html-keyboard-response,38,2.0.0,118514,p03mqyeeyqu,seal,<b><font size=6>Ice has heat.</font></b>,m,Thermodynamics,Heat,FALSE,TRUE,TRUE,FALSE,NA,NA,/Users/martincz/GitHub/COGS119/group_fa24_naive_theories/analysis/../data/raw_data/p03mqyeeyqu_1732223212566.csv
NA,2413,html-keyboard-response,39,2.0.0,121429,p03mqyeeyqu,seal,<b><font size=6>Heat increases an object's size.</font></b>,z,Thermodynamics,Thermal expansion,FALSE,TRUE,TRUE,TRUE,NA,NA,/Users/martincz/GitHub/COGS119/group_fa24_naive_theories/analysis/../data/raw_data/p03mqyeeyqu_1732223212566.csv
NA,12289,html-keyboard-response,40,2.0.0,134221,p03mqyeeyqu,seal,<b><font size=6>Water transfers heat to ice.</font></b>,z,Thermodynamics,Heat transfer,TRUE,TRUE,TRUE,TRUE,NA,NA,/Users/martincz/GitHub/COGS119/group_fa24_naive_theories/analysis/../data/raw_data/p03mqyeeyqu_1732223212566.csv
NA,4460,html-keyboard-response,41,2.0.0,139183,p03mqyeeyqu,seal,<b><font size=6>Heat increases an object's temperature.</font></b>,z,Thermodynamics,Thermal expansion,TRUE,TRUE,TRUE,TRUE,NA,NA,/Users/martincz/GitHub/COGS119/group_fa24_naive_theories/analysis/../data/raw_data/p03mqyeeyqu_1732223212566.csv
NA,1252,html-keyboard-response,42,2.0.0,140937,p03mqyeeyqu,seal,<b><font size=6>Pressure produces heat.</font></b>,z,Thermodynamics,Heat source,FALSE,TRUE,TRUE,TRUE,NA,NA,/Users/martincz/GitHub/COGS119/group_fa24_naive_theories/analysis/../data/raw_data/p03mqyeeyqu_1732223212566.csv
NA,1581,html-keyboard-response,43,2.0.0,143020,p03mqyeeyqu,seal,<b><font size=6>Rain produces heat.</font></b>,m,Thermodynamics,Heat source,FALSE,FALSE,FALSE,TRUE,NA,NA,/Users/martincz/GitHub/COGS119/group_fa24_naive_theories/analysis/../data/raw_data/p03mqyeeyqu_1732223212566.csv
NA,2768,html-keyboard-response,44,2.0.0,146289,p03mqyeeyqu,seal,<b><font size=6>Two cups of ice have a lower temperature than one.</font></b>,z,Thermodynamics,Temperature,TRUE,FALSE,FALSE,FALSE,NA,NA,/Users/martincz/GitHub/COGS119/group_fa24_naive_theories/analysis/../data/raw_data/p03mqyeeyqu_1732223212566.csv
NA,1111,html-keyboard-response,45,2.0.0,147902,p03mqyeeyqu,seal,<b><font size=6>Atoms have heat.</font></b>,z,Thermodynamics,Heat,TRUE,FALSE,FALSE,FALSE,NA,NA,/Users/martincz/GitHub/COGS119/group_fa24_naive_theories/analysis/../data/raw_data/p03mqyeeyqu_1732223212566.csv
NA,3330,html-keyboard-response,46,2.0.0,151733,p03mqyeeyqu,seal,<b><font size=6>Cold objects transfer heat to even colder objects.</font></b>,m,Thermodynamics,Heat transfer,FALSE,TRUE,TRUE,FALSE,NA,NA,/Users/martincz/GitHub/COGS119/group_fa24_naive_theories/analysis/../data/raw_data/p03mqyeeyqu_1732223212566.csv
NA,NA,html-keyboard-response,47,2.0.0,153937,p03mqyeeyqu,seal,<p><font-size=6>All the following statements are in category:</font></p><b><font size=10><font color=blue>Physiology</font></b>,null,NA,NA,NA,NA,NA,NA,NA,NA,/Users/martincz/GitHub/COGS119/group_fa24_naive_theories/analysis/../data/raw_data/p03mqyeeyqu_1732223212566.csv
NA,5433,html-keyboard-response,48,2.0.0,159872,p03mqyeeyqu,seal,<b><font size=6>Clouds can die.</font></b>,z,Physiology,Death,TRUE,FALSE,FALSE,FALSE,NA,NA,/Users/martincz/GitHub/COGS119/group_fa24_naive_theories/analysis/../data/raw_data/p03mqyeeyqu_1732223212566.csv
NA,932,html-keyboard-response,49,2.0.0,161306,p03mqyeeyqu,seal,<b><font size=6>Coral is alive.</font></b>,z,Physiology,Life,FALSE,TRUE,TRUE,TRUE,NA,NA,/Users/martincz/GitHub/COGS119/group_fa24_naive_theories/analysis/../data/raw_data/p03mqyeeyqu_1732223212566.csv
NA,1077,html-keyboard-response,50,2.0.0,162885,p03mqyeeyqu,seal,<b><font size=6>Mushrooms can die.</font></b>,z,Physiology,Death,FALSE,TRUE,TRUE,TRUE,NA,NA,/Users/martincz/GitHub/COGS119/group_fa24_naive_theories/analysis/../data/raw_data/p03mqyeeyqu_1732223212566.csv
NA,1352,html-keyboard-response,51,2.0.0,164739,p03mqyeeyqu,seal,<b><font size=6>Ferns can reproduce.</font></b>,z,Physiology,Reproduction,FALSE,TRUE,TRUE,TRUE,NA,NA,/Users/martincz/GitHub/COGS119/group_fa24_naive_theories/analysis/../data/raw_data/p03mqyeeyqu_1732223212566.csv
NA,767,html-keyboard-response,52,2.0.0,166007,p03mqyeeyqu,seal,<b><font size=6>Tigers can reproduce.</font></b>,z,Physiology,Reproduction,TRUE,TRUE,TRUE,TRUE,NA,NA,/Users/martincz/GitHub/COGS119/group_fa24_naive_theories/analysis/../data/raw_data/p03mqyeeyqu_1732223212566.csv
NA,1052,html-keyboard-response,53,2.0.0,167561,p03mqyeeyqu,seal,<b><font size=6>Turtles can die.</font></b>,z,Physiology,Death,TRUE,TRUE,TRUE,TRUE,NA,NA,/Users/martincz/GitHub/COGS119/group_fa24_naive_theories/analysis/../data/raw_data/p03mqyeeyqu_1732223212566.csv
NA,1396,html-keyboard-response,54,2.0.0,169459,p03mqyeeyqu,seal,<b><font size=6>Chairs can reproduce.</font></b>,m,Physiology,Reproduction,FALSE,FALSE,FALSE,TRUE,NA,NA,/Users/martincz/GitHub/COGS119/group_fa24_naive_theories/analysis/../data/raw_data/p03mqyeeyqu_1732223212566.csv
NA,1592,html-keyboard-response,55,2.0.0,171553,p03mqyeeyqu,seal,<b><font size=6>Plants turn food into energy.</font></b>,z,Physiology,Metabolism,TRUE,FALSE,FALSE,FALSE,NA,NA,/Users/martincz/GitHub/COGS119/group_fa24_naive_theories/analysis/../data/raw_data/p03mqyeeyqu_1732223212566.csv
NA,2074,html-keyboard-response,56,2.0.0,174129,p03mqyeeyqu,seal,<b><font size=6>A baby can be an uncle or an aunt.</font></b>,z,Physiology,Kinship,FALSE,TRUE,TRUE,TRUE,NA,NA,/Users/martincz/GitHub/COGS119/group_fa24_naive_theories/analysis/../data/raw_data/p03mqyeeyqu_1732223212566.csv
NA,3707,html-keyboard-response,57,2.0.0,178338,p03mqyeeyqu,seal,<b><font size=6>Bacteria turn food into energy.</font></b>,z,Physiology,Metabolism,FALSE,TRUE,TRUE,TRUE,NA,NA,/Users/martincz/GitHub/COGS119/group_fa24_naive_theories/analysis/../data/raw_data/p03mqyeeyqu_1732223212566.csv
NA,1047,html-keyboard-response,58,2.0.0,179887,p03mqyeeyqu,seal,<b><font size=6>Screwdrivers can die.</font></b>,m,Physiology,Death,FALSE,FALSE,FALSE,TRUE,NA,NA,/Users/martincz/GitHub/COGS119/group_fa24_naive_theories/analysis/../data/raw_data/p03mqyeeyqu_1732223212566.csv
NA,5110,html-keyboard-response,59,2.0.0,185498,p03mqyeeyqu,seal,<b><font size=6>Rocks turn food into energy.</font></b>,m,Physiology,Metabolism,FALSE,FALSE,FALSE,TRUE,NA,NA,/Users/martincz/GitHub/COGS119/group_fa24_naive_theories/analysis/../data/raw_data/p03mqyeeyqu_1732223212566.csv
NA,2192,html-keyboard-response,60,2.0.0,188191,p03mqyeeyqu,seal,<b><font size=6>A baby can be a mother or a father.</font></b>,m,Physiology,Kinship,FALSE,FALSE,FALSE,TRUE,NA,NA,/Users/martincz/GitHub/COGS119/group_fa24_naive_theories/analysis/../data/raw_data/p03mqyeeyqu_1732223212566.csv
NA,1388,html-keyboard-response,61,2.0.0,190081,p03mqyeeyqu,seal,<b><font size=6>People turn food into energy.</font></b>,z,Physiology,Metabolism,TRUE,TRUE,TRUE,TRUE,NA,NA,/Users/martincz/GitHub/COGS119/group_fa24_naive_theories/analysis/../data/raw_data/p03mqyeeyqu_1732223212566.csv
NA,683,html-keyboard-response,62,2.0.0,191266,p03mqyeeyqu,seal,<b><font size=6>The sun is alive.</font></b>,z,Physiology,Life,TRUE,FALSE,FALSE,FALSE,NA,NA,/Users/martincz/GitHub/COGS119/group_fa24_naive_theories/analysis/../data/raw_data/p03mqyeeyqu_1732223212566.csv
NA,837,html-keyboard-response,63,2.0.0,192605,p03mqyeeyqu,seal,<b><font size=6>Caterpillars can reproduce.</font></b>,z,Physiology,Reproduction,TRUE,FALSE,FALSE,FALSE,NA,NA,/Users/martincz/GitHub/COGS119/group_fa24_naive_theories/analysis/../data/raw_data/p03mqyeeyqu_1732223212566.csv
NA,1451,html-keyboard-response,64,2.0.0,194558,p03mqyeeyqu,seal,<b><font size=6>Rocks are alive.</font></b>,m,Physiology,Life,FALSE,FALSE,FALSE,TRUE,NA,NA,/Users/martincz/GitHub/COGS119/group_fa24_naive_theories/analysis/../data/raw_data/p03mqyeeyqu_1732223212566.csv
NA,1186,html-keyboard-response,65,2.0.0,196246,p03mqyeeyqu,seal,<b><font size=6>A baby can be a niece or a nephew.</font></b>,z,Physiology,Kinship,TRUE,TRUE,TRUE,TRUE,NA,NA,/Users/martincz/GitHub/COGS119/group_fa24_naive_theories/analysis/../data/raw_data/p03mqyeeyqu_1732223212566.csv
NA,2547,html-keyboard-response,66,2.0.0,199295,p03mqyeeyqu,seal,<b><font size=6>A baby can be identical to an older sibling.</font></b>,m,Physiology,Kinship,TRUE,FALSE,FALSE,TRUE,NA,NA,/Users/martincz/GitHub/COGS119/group_fa24_naive_theories/analysis/../data/raw_data/p03mqyeeyqu_1732223212566.csv
NA,2276,html-keyboard-response,67,2.0.0,202073,p03mqyeeyqu,seal,<b><font size=6>Fish are alive.</font></b>,z,Physiology,Life,TRUE,TRUE,TRUE,TRUE,NA,NA,/Users/martincz/GitHub/COGS119/group_fa24_naive_theories/analysis/../data/raw_data/p03mqyeeyqu_1732223212566.csv
NA,NA,html-keyboard-response,68,2.0.0,204276,p03mqyeeyqu,seal,<p><font-size=6>All the following statements are in category:</font></p><b><font size=10><font color=blue>Astronomy</font></b>,null,NA,NA,NA,NA,NA,NA,NA,NA,/Users/martincz/GitHub/COGS119/group_fa24_naive_theories/analysis/../data/raw_data/p03mqyeeyqu_1732223212566.csv
NA,2768,html-keyboard-response,69,2.0.0,207546,p03mqyeeyqu,seal,<b><font size=6>The sun revolves around the earth.</font></b>,m,Astronomy,Solar system,TRUE,FALSE,FALSE,TRUE,NA,NA,/Users/martincz/GitHub/COGS119/group_fa24_naive_theories/analysis/../data/raw_data/p03mqyeeyqu_1732223212566.csv
NA,8064,html-keyboard-response,70,2.0.0,216112,p03mqyeeyqu,seal,<b><font size=6>Phases of the moon are caused by the earth's shadow.</font></b>,z,Astronomy,Lunar phase,TRUE,FALSE,FALSE,FALSE,NA,NA,/Users/martincz/GitHub/COGS119/group_fa24_naive_theories/analysis/../data/raw_data/p03mqyeeyqu_1732223212566.csv
NA,1373,html-keyboard-response,71,2.0.0,217987,p03mqyeeyqu,seal,<b><font size=6>Phases of the moon are caused by the moon's orbit.</font></b>,z,Astronomy,Lunar phase,FALSE,TRUE,TRUE,TRUE,NA,NA,/Users/martincz/GitHub/COGS119/group_fa24_naive_theories/analysis/../data/raw_data/p03mqyeeyqu_1732223212566.csv
NA,2339,html-keyboard-response,72,2.0.0,220827,p03mqyeeyqu,seal,<b><font size=6>Planets are more massive than moons.</font></b>,z,Astronomy,Planet,TRUE,TRUE,TRUE,TRUE,NA,NA,/Users/martincz/GitHub/COGS119/group_fa24_naive_theories/analysis/../data/raw_data/p03mqyeeyqu_1732223212566.csv
NA,2106,html-keyboard-response,73,2.0.0,223436,p03mqyeeyqu,seal,<b><font size=6>The sun produces sound.</font></b>,z,Astronomy,Star,FALSE,FALSE,FALSE,FALSE,NA,NA,/Users/martincz/GitHub/COGS119/group_fa24_naive_theories/analysis/../data/raw_data/p03mqyeeyqu_1732223212566.csv
NA,2978,html-keyboard-response,74,2.0.0,226916,p03mqyeeyqu,seal,<b><font size=6>The moon produces light.</font></b>,m,Astronomy,Star,TRUE,FALSE,FALSE,TRUE,NA,NA,/Users/martincz/GitHub/COGS119/group_fa24_naive_theories/analysis/../data/raw_data/p03mqyeeyqu_1732223212566.csv
NA,3621,html-keyboard-response,75,2.0.0,231039,p03mqyeeyqu,seal,<b><font size=6>Stars are more massive than planets.</font></b>,z,Astronomy,Planet,FALSE,TRUE,TRUE,TRUE,NA,NA,/Users/martincz/GitHub/COGS119/group_fa24_naive_theories/analysis/../data/raw_data/p03mqyeeyqu_1732223212566.csv
NA,2337,html-keyboard-response,76,2.0.0,233878,p03mqyeeyqu,seal,<b><font size=6>Phases of the moon are caused by changes in illumination.</font></b>,z,Astronomy,Lunar phase,TRUE,TRUE,TRUE,TRUE,NA,NA,/Users/martincz/GitHub/COGS119/group_fa24_naive_theories/analysis/../data/raw_data/p03mqyeeyqu_1732223212566.csv
NA,2608,html-keyboard-response,77,2.0.0,236987,p03mqyeeyqu,seal,<b><font size=6>The earth's rotation causes the seasons.</font></b>,z,Astronomy,Season,FALSE,FALSE,FALSE,FALSE,NA,NA,/Users/martincz/GitHub/COGS119/group_fa24_naive_theories/analysis/../data/raw_data/p03mqyeeyqu_1732223212566.csv
NA,2178,html-keyboard-response,78,2.0.0,239666,p03mqyeeyqu,seal,<b><font size=6>The sun revolves around the moon.</font></b>,m,Astronomy,Solar system,FALSE,FALSE,FALSE,TRUE,NA,NA,/Users/martincz/GitHub/COGS119/group_fa24_naive_theories/analysis/../data/raw_data/p03mqyeeyqu_1732223212566.csv
NA,2312,html-keyboard-response,79,2.0.0,242479,p03mqyeeyqu,seal,<b><font size=6>Planets are more massive than stars.</font></b>,z,Astronomy,Planet,TRUE,FALSE,FALSE,FALSE,NA,NA,/Users/martincz/GitHub/COGS119/group_fa24_naive_theories/analysis/../data/raw_data/p03mqyeeyqu_1732223212566.csv
NA,1869,html-keyboard-response,80,2.0.0,244850,p03mqyeeyqu,seal,<b><font size=6>A change in overall sunlight causes the seasons.</font></b>,z,Astronomy,Season,TRUE,TRUE,TRUE,TRUE,NA,NA,/Users/martincz/GitHub/COGS119/group_fa24_naive_theories/analysis/../data/raw_data/p03mqyeeyqu_1732223212566.csv
NA,1479,html-keyboard-response,81,2.0.0,246831,p03mqyeeyqu,seal,<b><font size=6>The earth revolves around the sun.</font></b>,z,Astronomy,Solar system,FALSE,TRUE,TRUE,TRUE,NA,NA,/Users/martincz/GitHub/COGS119/group_fa24_naive_theories/analysis/../data/raw_data/p03mqyeeyqu_1732223212566.csv
NA,1195,html-keyboard-response,82,2.0.0,248527,p03mqyeeyqu,seal,<b><font size=6>The sun produces light.</font></b>,z,Astronomy,Star,TRUE,TRUE,TRUE,TRUE,NA,NA,/Users/martincz/GitHub/COGS119/group_fa24_naive_theories/analysis/../data/raw_data/p03mqyeeyqu_1732223212566.csv
NA,1661,html-keyboard-response,83,2.0.0,250690,p03mqyeeyqu,seal,<b><font size=6>Phases of the moon are caused by clouds.</font></b>,m,Astronomy,Lunar phase,FALSE,FALSE,FALSE,TRUE,NA,NA,/Users/martincz/GitHub/COGS119/group_fa24_naive_theories/analysis/../data/raw_data/p03mqyeeyqu_1732223212566.csv
NA,3264,html-keyboard-response,84,2.0.0,254455,p03mqyeeyqu,seal,<b><font size=6>The earth's distance from the sun causes the seasons.</font></b>,z,Astronomy,Season,TRUE,FALSE,FALSE,FALSE,NA,NA,/Users/martincz/GitHub/COGS119/group_fa24_naive_theories/analysis/../data/raw_data/p03mqyeeyqu_1732223212566.csv
NA,1390,html-keyboard-response,85,2.0.0,256347,p03mqyeeyqu,seal,<b><font size=6>The moon revolves around the earth.</font></b>,z,Astronomy,Solar system,TRUE,TRUE,TRUE,TRUE,NA,NA,/Users/martincz/GitHub/COGS119/group_fa24_naive_theories/analysis/../data/raw_data/p03mqyeeyqu_1732223212566.csv
NA,1159,html-keyboard-response,86,2.0.0,258008,p03mqyeeyqu,seal,<b><font size=6>The sun produces gravity.</font></b>,z,Astronomy,Star,FALSE,TRUE,TRUE,TRUE,NA,NA,/Users/martincz/GitHub/COGS119/group_fa24_naive_theories/analysis/../data/raw_data/p03mqyeeyqu_1732223212566.csv
NA,2098,html-keyboard-response,87,2.0.0,260608,p03mqyeeyqu,seal,<b><font size=6>The earth's tilt causes the seasons.</font></b>,z,Astronomy,Season,FALSE,TRUE,TRUE,TRUE,NA,NA,/Users/martincz/GitHub/COGS119/group_fa24_naive_theories/analysis/../data/raw_data/p03mqyeeyqu_1732223212566.csv
NA,2415,html-keyboard-response,88,2.0.0,263524,p03mqyeeyqu,seal,<b><font size=6>Asteroids are more massive than planets.</font></b>,m,Astronomy,Planet,FALSE,FALSE,FALSE,TRUE,NA,NA,/Users/martincz/GitHub/COGS119/group_fa24_naive_theories/analysis/../data/raw_data/p03mqyeeyqu_1732223212566.csv
NA,NA,html-keyboard-response,89,2.0.0,265728,p03mqyeeyqu,seal,<p><font-size=6>All the following statements are in category:</font></p><b><font size=10><font color=blue>Matter</font></b>,null,NA,NA,NA,NA,NA,NA,NA,NA,/Users/martincz/GitHub/COGS119/group_fa24_naive_theories/analysis/../data/raw_data/p03mqyeeyqu_1732223212566.csv
NA,5744,html-keyboard-response,90,2.0.0,271974,p03mqyeeyqu,seal,<b><font size=6>Atoms are weightless.</font></b>,z,Matter,Atom,TRUE,FALSE,FALSE,FALSE,NA,NA,/Users/martincz/GitHub/COGS119/group_fa24_naive_theories/analysis/../data/raw_data/p03mqyeeyqu_1732223212566.csv
NA,2539,html-keyboard-response,91,2.0.0,275015,p03mqyeeyqu,seal,<b><font size=6>Steel is denser than foam.</font></b>,z,Matter,Density,TRUE,TRUE,TRUE,TRUE,NA,NA,/Users/martincz/GitHub/COGS119/group_fa24_naive_theories/analysis/../data/raw_data/p03mqyeeyqu_1732223212566.csv
NA,1757,html-keyboard-response,92,2.0.0,277275,p03mqyeeyqu,seal,<b><font size=6>Numbers are composed of matter.</font></b>,m,Matter,Mass,FALSE,FALSE,FALSE,TRUE,NA,NA,/Users/martincz/GitHub/COGS119/group_fa24_naive_theories/analysis/../data/raw_data/p03mqyeeyqu_1732223212566.csv
NA,1705,html-keyboard-response,93,2.0.0,279481,p03mqyeeyqu,seal,<b><font size=6>An idea can be cut in half.</font></b>,z,Matter,Divisibility,FALSE,FALSE,FALSE,FALSE,NA,NA,/Users/martincz/GitHub/COGS119/group_fa24_naive_theories/analysis/../data/raw_data/p03mqyeeyqu_1732223212566.csv
NA,13886,html-keyboard-response,94,2.0.0,293868,p03mqyeeyqu,seal,<b><font size=6>A pound of steel weighs more than a ton of steel.</font></b>,z,Matter,Weight,FALSE,FALSE,FALSE,FALSE,NA,NA,/Users/martincz/GitHub/COGS119/group_fa24_naive_theories/analysis/../data/raw_data/p03mqyeeyqu_1732223212566.csv
NA,1599,html-keyboard-response,95,2.0.0,295970,p03mqyeeyqu,seal,<b><font size=6>Atoms are mostly empty space.</font></b>,m,Matter,Atom,FALSE,TRUE,TRUE,FALSE,NA,NA,/Users/martincz/GitHub/COGS119/group_fa24_naive_theories/analysis/../data/raw_data/p03mqyeeyqu_1732223212566.csv
NA,1565,html-keyboard-response,96,2.0.0,298036,p03mqyeeyqu,seal,<b><font size=6>A shadow can be cut in half.</font></b>,m,Matter,Divisibility,TRUE,FALSE,FALSE,TRUE,NA,NA,/Users/martincz/GitHub/COGS119/group_fa24_naive_theories/analysis/../data/raw_data/p03mqyeeyqu_1732223212566.csv
NA,1201,html-keyboard-response,97,2.0.0,299739,p03mqyeeyqu,seal,<b><font size=6>A grain of sand can be cut in half.</font></b>,z,Matter,Divisibility,FALSE,TRUE,TRUE,TRUE,NA,NA,/Users/martincz/GitHub/COGS119/group_fa24_naive_theories/analysis/../data/raw_data/p03mqyeeyqu_1732223212566.csv
NA,790,html-keyboard-response,98,2.0.0,301031,p03mqyeeyqu,seal,<b><font size=6>A log can be cut in half.</font></b>,z,Matter,Divisibility,TRUE,TRUE,TRUE,TRUE,NA,NA,/Users/martincz/GitHub/COGS119/group_fa24_naive_theories/analysis/../data/raw_data/p03mqyeeyqu_1732223212566.csv
NA,1161,html-keyboard-response,99,2.0.0,302694,p03mqyeeyqu,seal,<b><font size=6>Atoms are visible to the naked eye.</font></b>,m,Matter,Atom,FALSE,FALSE,FALSE,TRUE,NA,NA,/Users/martincz/GitHub/COGS119/group_fa24_naive_theories/analysis/../data/raw_data/p03mqyeeyqu_1732223212566.csv
NA,1150,html-keyboard-response,100,2.0.0,304347,p03mqyeeyqu,seal,<b><font size=6>Rocks are composed of matter.</font></b>,z,Matter,Mass,TRUE,TRUE,TRUE,TRUE,NA,NA,/Users/martincz/GitHub/COGS119/group_fa24_naive_theories/analysis/../data/raw_data/p03mqyeeyqu_1732223212566.csv
NA,1458,html-keyboard-response,101,2.0.0,306305,p03mqyeeyqu,seal,<b><font size=6>Ice is denser than water.</font></b>,z,Matter,Density,TRUE,FALSE,FALSE,FALSE,NA,NA,/Users/martincz/GitHub/COGS119/group_fa24_naive_theories/analysis/../data/raw_data/p03mqyeeyqu_1732223212566.csv
NA,1930,html-keyboard-response,102,2.0.0,308737,p03mqyeeyqu,seal,<b><font size=6>A cold penny is denser than a hot penny.</font></b>,m,Matter,Density,FALSE,TRUE,TRUE,FALSE,NA,NA,/Users/martincz/GitHub/COGS119/group_fa24_naive_theories/analysis/../data/raw_data/p03mqyeeyqu_1732223212566.csv
NA,1821,html-keyboard-response,103,2.0.0,311059,p03mqyeeyqu,seal,<b><font size=6>Foam is denser than brick.</font></b>,m,Matter,Density,FALSE,FALSE,FALSE,TRUE,NA,NA,/Users/martincz/GitHub/COGS119/group_fa24_naive_theories/analysis/../data/raw_data/p03mqyeeyqu_1732223212566.csv
NA,2228,html-keyboard-response,104,2.0.0,313789,p03mqyeeyqu,seal,<b><font size=6>A liter of water weighs more than a liter of ice.</font></b>,m,Matter,Weight,FALSE,TRUE,TRUE,FALSE,NA,NA,/Users/martincz/GitHub/COGS119/group_fa24_naive_theories/analysis/../data/raw_data/p03mqyeeyqu_1732223212566.csv
NA,1645,html-keyboard-response,105,2.0.0,315936,p03mqyeeyqu,seal,<b><font size=6>A liter of water weighs more than a liter of air.</font></b>,z,Matter,Weight,TRUE,TRUE,TRUE,TRUE,NA,NA,/Users/martincz/GitHub/COGS119/group_fa24_naive_theories/analysis/../data/raw_data/p03mqyeeyqu_1732223212566.csv
NA,1991,html-keyboard-response,106,2.0.0,318429,p03mqyeeyqu,seal,<b><font size=6>Fire is composed of matter.</font></b>,z,Matter,Mass,TRUE,FALSE,FALSE,FALSE,NA,NA,/Users/martincz/GitHub/COGS119/group_fa24_naive_theories/analysis/../data/raw_data/p03mqyeeyqu_1732223212566.csv
NA,1293,html-keyboard-response,107,2.0.0,320224,p03mqyeeyqu,seal,<b><font size=6>Atoms are the constituents of matter.</font></b>,z,Matter,Atom,TRUE,TRUE,TRUE,TRUE,NA,NA,/Users/martincz/GitHub/COGS119/group_fa24_naive_theories/analysis/../data/raw_data/p03mqyeeyqu_1732223212566.csv
NA,1959,html-keyboard-response,108,2.0.0,322685,p03mqyeeyqu,seal,<b><font size=6>A pound of steel weighs more than a pound of feathers.</font></b>,z,Matter,Weight,TRUE,FALSE,FALSE,FALSE,NA,NA,/Users/martincz/GitHub/COGS119/group_fa24_naive_theories/analysis/../data/raw_data/p03mqyeeyqu_1732223212566.csv
NA,1801,html-keyboard-response,109,2.0.0,324989,p03mqyeeyqu,seal,<b><font size=6>Air is composed of matter.</font></b>,z,Matter,Mass,FALSE,TRUE,TRUE,TRUE,NA,NA,/Users/martincz/GitHub/COGS119/group_fa24_naive_theories/analysis/../data/raw_data/p03mqyeeyqu_1732223212566.csv
NA,17086,survey-text,110,2.0.0,342578,p03mqyeeyqu,seal,NA,"{""reflection1"":""to test knowledge ""}",NA,NA,NA,NA,NA,NA,to test knowledge,NA,/Users/martincz/GitHub/COGS119/group_fa24_naive_theories/analysis/../data/raw_data/p03mqyeeyqu_1732223212566.csv
NA,2767,survey-text,111,2.0.0,345347,p03mqyeeyqu,seal,NA,"{""reflection2"":""no""}",NA,NA,NA,NA,NA,NA,NA,no,/Users/martincz/GitHub/COGS119/group_fa24_naive_theories/analysis/../data/raw_data/p03mqyeeyqu_1732223212566.csv
TRUE,1350,fullscreen,0,null,2380,p0gn130e5rf,parrot,NA,NA,NA,NA,NA,NA,NA,NA,NA,NA,/Users/martincz/GitHub/COGS119/group_fa24_naive_theories/analysis/../data/raw_data/p0gn130e5rf_1732221977961.csv
NA,1678,html-keyboard-response,1,2.0.0,4061,p0gn130e5rf,parrot,This trial will be in fullscreen mode. Press any key to begin.,NA,NA,NA,NA,NA,NA,NA,NA,NA,/Users/martincz/GitHub/COGS119/group_fa24_naive_theories/analysis/../data/raw_data/p0gn130e5rf_1732221977961.csv
NA,864,html-keyboard-response,2,2.0.0,5427,p0gn130e5rf,parrot,Welcome to the experiment. Press any key to begin.,NA,NA,NA,NA,NA,NA,NA,NA,NA,/Users/martincz/GitHub/COGS119/group_fa24_naive_theories/analysis/../data/raw_data/p0gn130e5rf_1732221977961.csv
NA,2542,survey-text,3,2.0.0,8477,p0gn130e5rf,parrot,NA,"{""participant_id"":""parrot""}",NA,NA,NA,NA,NA,NA,NA,NA,/Users/martincz/GitHub/COGS119/group_fa24_naive_theories/analysis/../data/raw_data/p0gn130e5rf_1732221977961.csv
NA,4828,html-keyboard-response,4,2.0.0,13809,p0gn130e5rf,parrot,"<p>Welcome to the experiment!</p><p>In this task, you will see a series of scientific statements.</p><p>Your job is to decide whether each statement is true or false.</p><p>Press 'z' if you think the statement is true and 'm' if you think it is false.</p><p>Press any key to begin.</p>",NA,NA,NA,NA,NA,NA,NA,NA,NA,/Users/martincz/GitHub/COGS119/group_fa24_naive_theories/analysis/../data/raw_data/p0gn130e5rf_1732221977961.csv
NA,NA,html-keyboard-response,5,2.0.0,15513,p0gn130e5rf,parrot,<p><font-size=6>All the following statements are in category:</font></p><b><font size=10><font color=blue>Waves</font></b>,null,NA,NA,NA,NA,NA,NA,NA,NA,/Users/martincz/GitHub/COGS119/group_fa24_naive_theories/analysis/../data/raw_data/p0gn130e5rf_1732221977961.csv
NA,7956,html-keyboard-response,6,2.0.0,23973,p0gn130e5rf,parrot,<b><font size=6>Black objects reflect all colors of light.</font></b>,z,Waves,Light,TRUE,FALSE,FALSE,FALSE,NA,NA,/Users/martincz/GitHub/COGS119/group_fa24_naive_theories/analysis/../data/raw_data/p0gn130e5rf_1732221977961.csv
NA,1591,html-keyboard-response,7,2.0.0,26067,p0gn130e5rf,parrot,<b><font size=6>Shadows contain all colors of light.</font></b>,z,Waves,Light,FALSE,FALSE,FALSE,FALSE,NA,NA,/Users/martincz/GitHub/COGS119/group_fa24_naive_theories/analysis/../data/raw_data/p0gn130e5rf_1732221977961.csv
NA,2945,html-keyboard-response,8,2.0.0,29514,p0gn130e5rf,parrot,<b><font size=6>Sounds can be near or far.</font></b>,z,Waves,Sound,TRUE,FALSE,FALSE,FALSE,NA,NA,/Users/martincz/GitHub/COGS119/group_fa24_naive_theories/analysis/../data/raw_data/p0gn130e5rf_1732221977961.csv
NA,1978,html-keyboard-response,9,2.0.0,31994,p0gn130e5rf,parrot,<b><font size=6>Foam reflects sound.</font></b>,m,Waves,Reflection,FALSE,FALSE,FALSE,TRUE,NA,NA,/Users/martincz/GitHub/COGS119/group_fa24_naive_theories/analysis/../data/raw_data/p0gn130e5rf_1732221977961.csv
NA,1198,html-keyboard-response,10,2.0.0,33695,p0gn130e5rf,parrot,<b><font size=6>Mirrors reflect light.</font></b>,z,Waves,Reflection,TRUE,TRUE,TRUE,TRUE,NA,NA,/Users/martincz/GitHub/COGS119/group_fa24_naive_theories/analysis/../data/raw_data/p0gn130e5rf_1732221977961.csv
NA,2222,html-keyboard-response,11,2.0.0,36419,p0gn130e5rf,parrot,<b><font size=6>Sounds can be loud or quiet.</font></b>,z,Waves,Sound,TRUE,TRUE,TRUE,TRUE,NA,NA,/Users/martincz/GitHub/COGS119/group_fa24_naive_theories/analysis/../data/raw_data/p0gn130e5rf_1732221977961.csv
NA,1747,html-keyboard-response,12,2.0.0,38668,p0gn130e5rf,parrot,<b><font size=6>Mirrors reflect sound.</font></b>,m,Waves,Reflection,FALSE,TRUE,TRUE,FALSE,NA,NA,/Users/martincz/GitHub/COGS119/group_fa24_naive_theories/analysis/../data/raw_data/p0gn130e5rf_1732221977961.csv
NA,1837,html-keyboard-response,13,2.0.0,41008,p0gn130e5rf,parrot,<b><font size=6>Sounds can be dead or alive.</font></b>,m,Waves,Sound,FALSE,FALSE,FALSE,TRUE,NA,NA,/Users/martincz/GitHub/COGS119/group_fa24_naive_theories/analysis/../data/raw_data/p0gn130e5rf_1732221977961.csv
NA,1471,html-keyboard-response,14,2.0.0,42982,p0gn130e5rf,parrot,<b><font size=6>Sound travels through foam.</font></b>,z,Waves,Propagation,FALSE,FALSE,FALSE,FALSE,NA,NA,/Users/martincz/GitHub/COGS119/group_fa24_naive_theories/analysis/../data/raw_data/p0gn130e5rf_1732221977961.csv
NA,2035,html-keyboard-response,15,2.0.0,45519,p0gn130e5rf,parrot,<b><font size=6>Prisms reflect light.</font></b>,z,Waves,Reflection,TRUE,FALSE,FALSE,FALSE,NA,NA,/Users/martincz/GitHub/COGS119/group_fa24_naive_theories/analysis/../data/raw_data/p0gn130e5rf_1732221977961.csv
NA,3221,html-keyboard-response,16,2.0.0,49242,p0gn130e5rf,parrot,<b><font size=6>White light contains all colors of light.</font></b>,z,Waves,Light,FALSE,TRUE,TRUE,TRUE,NA,NA,/Users/martincz/GitHub/COGS119/group_fa24_naive_theories/analysis/../data/raw_data/p0gn130e5rf_1732221977961.csv
NA,4975,html-keyboard-response,17,2.0.0,54719,p0gn130e5rf,parrot,<b><font size=6>Rainbows contain all colors of light.</font></b>,z,Waves,Light,TRUE,TRUE,TRUE,TRUE,NA,NA,/Users/martincz/GitHub/COGS119/group_fa24_naive_theories/analysis/../data/raw_data/p0gn130e5rf_1732221977961.csv
NA,1147,html-keyboard-response,18,2.0.0,56368,p0gn130e5rf,parrot,<b><font size=6>Sound travels through air.</font></b>,z,Waves,Propagation,TRUE,TRUE,TRUE,TRUE,NA,NA,/Users/martincz/GitHub/COGS119/group_fa24_naive_theories/analysis/../data/raw_data/p0gn130e5rf_1732221977961.csv
NA,2324,html-keyboard-response,19,2.0.0,59193,p0gn130e5rf,parrot,<b><font size=6>Red objects absorb blue light.</font></b>,m,Waves,Color,FALSE,TRUE,TRUE,FALSE,NA,NA,/Users/martincz/GitHub/COGS119/group_fa24_naive_theories/analysis/../data/raw_data/p0gn130e5rf_1732221977961.csv
NA,1951,html-keyboard-response,20,2.0.0,61646,p0gn130e5rf,parrot,<b><font size=6>Red objects reflect red light.</font></b>,z,Waves,Color,TRUE,TRUE,TRUE,TRUE,NA,NA,/Users/martincz/GitHub/COGS119/group_fa24_naive_theories/analysis/../data/raw_data/p0gn130e5rf_1732221977961.csv
NA,5483,html-keyboard-response,21,2.0.0,67631,p0gn130e5rf,parrot,<b><font size=6>Sound travels through a vacuum.</font></b>,z,Waves,Propagation,TRUE,FALSE,FALSE,FALSE,NA,NA,/Users/martincz/GitHub/COGS119/group_fa24_naive_theories/analysis/../data/raw_data/p0gn130e5rf_1732221977961.csv
NA,2972,html-keyboard-response,22,2.0.0,71104,p0gn130e5rf,parrot,<b><font size=6>Red objects reflect blue light.</font></b>,m,Waves,Color,FALSE,FALSE,FALSE,TRUE,NA,NA,/Users/martincz/GitHub/COGS119/group_fa24_naive_theories/analysis/../data/raw_data/p0gn130e5rf_1732221977961.csv
NA,1894,html-keyboard-response,23,2.0.0,73500,p0gn130e5rf,parrot,<b><font size=6>Sound travels through metal.</font></b>,z,Waves,Propagation,FALSE,TRUE,TRUE,TRUE,NA,NA,/Users/martincz/GitHub/COGS119/group_fa24_naive_theories/analysis/../data/raw_data/p0gn130e5rf_1732221977961.csv
NA,2389,html-keyboard-response,24,2.0.0,76392,p0gn130e5rf,parrot,<b><font size=6>Red objects absorb red light.</font></b>,z,Waves,Color,TRUE,FALSE,FALSE,FALSE,NA,NA,/Users/martincz/GitHub/COGS119/group_fa24_naive_theories/analysis/../data/raw_data/p0gn130e5rf_1732221977961.csv
NA,2257,html-keyboard-response,25,2.0.0,79150,p0gn130e5rf,parrot,<b><font size=6>Sounds can be direct or reflected.</font></b>,z,Waves,Sound,FALSE,TRUE,TRUE,TRUE,NA,NA,/Users/martincz/GitHub/COGS119/group_fa24_naive_theories/analysis/../data/raw_data/p0gn130e5rf_1732221977961.csv
NA,179,html-keyboard-response,26,2.0.0,79831,p0gn130e5rf,parrot,<p><font-size=6>All the following statements are in category:</font></p><b><font size=10><font color=blue>Evolution</font></b>,z,NA,NA,NA,NA,NA,NA,NA,NA,/Users/martincz/GitHub/COGS119/group_fa24_naive_theories/analysis/../data/raw_data/p0gn130e5rf_1732221977961.csv
NA,2912,html-keyboard-response,27,2.0.0,83246,p0gn130e5rf,parrot,<b><font size=6>Most organisms are adapted to their environment.</font></b>,Z,Evolution,Selection,TRUE,TRUE,TRUE,FALSE,NA,NA,/Users/martincz/GitHub/COGS119/group_fa24_naive_theories/analysis/../data/raw_data/p0gn130e5rf_1732221977961.csv
NA,2198,html-keyboard-response,28,2.0.0,85948,p0gn130e5rf,parrot,<b><font size=6>Most organisms die before leaving offspring.</font></b>,M,Evolution,Selection,FALSE,TRUE,TRUE,FALSE,NA,NA,/Users/martincz/GitHub/COGS119/group_fa24_naive_theories/analysis/../data/raw_data/p0gn130e5rf_1732221977961.csv
NA,1891,html-keyboard-response,29,2.0.0,88340,p0gn130e5rf,parrot,<b><font size=6>Most organisms have plenty to eat.</font></b>,m,Evolution,Selection,TRUE,FALSE,FALSE,TRUE,NA,NA,/Users/martincz/GitHub/COGS119/group_fa24_naive_theories/analysis/../data/raw_data/p0gn130e5rf_1732221977961.csv
NA,1127,html-keyboard-response,30,2.0.0,89969,p0gn130e5rf,parrot,<b><font size=6>Biological species evolve.</font></b>,z,Evolution,Adaptation,TRUE,TRUE,TRUE,TRUE,NA,NA,/Users/martincz/GitHub/COGS119/group_fa24_naive_theories/analysis/../data/raw_data/p0gn130e5rf_1732221977961.csv
NA,5570,html-keyboard-response,31,2.0.0,96040,p0gn130e5rf,parrot,<b><font size=6>Individual organisms evolve.</font></b>,z,Evolution,Adaptation,TRUE,FALSE,FALSE,FALSE,NA,NA,/Users/martincz/GitHub/COGS119/group_fa24_naive_theories/analysis/../data/raw_data/p0gn130e5rf_1732221977961.csv
NA,3891,html-keyboard-response,32,2.0.0,100434,p0gn130e5rf,parrot,<b><font size=6>Evolution requires long periods of time.</font></b>,z,Evolution,Variation,TRUE,FALSE,FALSE,FALSE,NA,NA,/Users/martincz/GitHub/COGS119/group_fa24_naive_theories/analysis/../data/raw_data/p0gn130e5rf_1732221977961.csv
NA,5825,html-keyboard-response,33,2.0.0,106761,p0gn130e5rf,parrot,<b><font size=6>Evolution requires differential survival.</font></b>,z,Evolution,Variation,TRUE,TRUE,TRUE,TRUE,NA,NA,/Users/martincz/GitHub/COGS119/group_fa24_naive_theories/analysis/../data/raw_data/p0gn130e5rf_1732221977961.csv
NA,1602,html-keyboard-response,34,2.0.0,108864,p0gn130e5rf,parrot,<b><font size=6>Humans are descended from sea-dwelling creatures.</font></b>,z,Evolution,Phylogeny,FALSE,TRUE,TRUE,TRUE,NA,NA,/Users/martincz/GitHub/COGS119/group_fa24_naive_theories/analysis/../data/raw_data/p0gn130e5rf_1732221977961.csv
NA,1389,html-keyboard-response,35,2.0.0,110755,p0gn130e5rf,parrot,<b><font size=6>Humans are descended from tree-dwelling creatures.</font></b>,z,Evolution,Phylogeny,TRUE,TRUE,TRUE,TRUE,NA,NA,/Users/martincz/GitHub/COGS119/group_fa24_naive_theories/analysis/../data/raw_data/p0gn130e5rf_1732221977961.csv
NA,2290,html-keyboard-response,36,2.0.0,113546,p0gn130e5rf,parrot,<b><font size=6>Apes are more closely related to monkeys than humans.</font></b>,m,Evolution,Common ancestry,TRUE,FALSE,FALSE,TRUE,NA,NA,/Users/martincz/GitHub/COGS119/group_fa24_naive_theories/analysis/../data/raw_data/p0gn130e5rf_1732221977961.csv
NA,1021,html-keyboard-response,37,2.0.0,115070,p0gn130e5rf,parrot,<b><font size=6>Humans are descended from chimpanzees.</font></b>,z,Evolution,Phylogeny,TRUE,FALSE,FALSE,FALSE,NA,NA,/Users/martincz/GitHub/COGS119/group_fa24_naive_theories/analysis/../data/raw_data/p0gn130e5rf_1732221977961.csv
NA,2055,html-keyboard-response,38,2.0.0,117627,p0gn130e5rf,parrot,<b><font size=6>Humans are more closely related to apes than monkeys.</font></b>,z,Evolution,Common ancestry,TRUE,TRUE,TRUE,TRUE,NA,NA,/Users/martincz/GitHub/COGS119/group_fa24_naive_theories/analysis/../data/raw_data/p0gn130e5rf_1732221977961.csv
NA,7946,html-keyboard-response,39,2.0.0,126075,p0gn130e5rf,parrot,<b><font size=6>Humans are descended from plants.</font></b>,m,Evolution,Phylogeny,FALSE,FALSE,FALSE,TRUE,NA,NA,/Users/martincz/GitHub/COGS119/group_fa24_naive_theories/analysis/../data/raw_data/p0gn130e5rf_1732221977961.csv
NA,3556,html-keyboard-response,40,2.0.0,130133,p0gn130e5rf,parrot,<b><font size=6>Evolution requires climate stability.</font></b>,m,Evolution,Variation,FALSE,FALSE,FALSE,TRUE,NA,NA,/Users/martincz/GitHub/COGS119/group_fa24_naive_theories/analysis/../data/raw_data/p0gn130e5rf_1732221977961.csv
NA,1554,html-keyboard-response,41,2.0.0,132190,p0gn130e5rf,parrot,<b><font size=6>Inanimate objects evolve.</font></b>,m,Evolution,Adaptation,FALSE,FALSE,FALSE,TRUE,NA,NA,/Users/martincz/GitHub/COGS119/group_fa24_naive_theories/analysis/../data/raw_data/p0gn130e5rf_1732221977961.csv
NA,1822,html-keyboard-response,42,2.0.0,134514,p0gn130e5rf,parrot,<b><font size=6>Whales are more closely related to humans than fish.</font></b>,m,Evolution,Common ancestry,FALSE,TRUE,TRUE,FALSE,NA,NA,/Users/martincz/GitHub/COGS119/group_fa24_naive_theories/analysis/../data/raw_data/p0gn130e5rf_1732221977961.csv
NA,1786,html-keyboard-response,43,2.0.0,136802,p0gn130e5rf,parrot,<b><font size=6>Evolution requires within-species variation.</font></b>,z,Evolution,Variation,FALSE,TRUE,TRUE,TRUE,NA,NA,/Users/martincz/GitHub/COGS119/group_fa24_naive_theories/analysis/../data/raw_data/p0gn130e5rf_1732221977961.csv
NA,1750,html-keyboard-response,44,2.0.0,139054,p0gn130e5rf,parrot,<b><font size=6>Computer viruses evolve.</font></b>,z,Evolution,Adaptation,FALSE,TRUE,TRUE,TRUE,NA,NA,/Users/martincz/GitHub/COGS119/group_fa24_naive_theories/analysis/../data/raw_data/p0gn130e5rf_1732221977961.csv
NA,1849,html-keyboard-response,45,2.0.0,141405,p0gn130e5rf,parrot,<b><font size=6>Whales are more closely related to plants than fish.</font></b>,m,Evolution,Common ancestry,FALSE,FALSE,FALSE,TRUE,NA,NA,/Users/martincz/GitHub/COGS119/group_fa24_naive_theories/analysis/../data/raw_data/p0gn130e5rf_1732221977961.csv
NA,2226,html-keyboard-response,46,2.0.0,144132,p0gn130e5rf,parrot,<b><font size=6>Most organisms live in temperate climates.</font></b>,z,Evolution,Selection,FALSE,FALSE,FALSE,FALSE,NA,NA,/Users/martincz/GitHub/COGS119/group_fa24_naive_theories/analysis/../data/raw_data/p0gn130e5rf_1732221977961.csv
NA,736,html-keyboard-response,47,2.0.0,145371,p0gn130e5rf,parrot,<p><font-size=6>All the following statements are in category:</font></p><b><font size=10><font color=blue>Genetics</font></b>,z,NA,NA,NA,NA,NA,NA,NA,NA,/Users/martincz/GitHub/COGS119/group_fa24_naive_theories/analysis/../data/raw_data/p0gn130e5rf_1732221977961.csv
NA,2846,html-keyboard-response,48,2.0.0,148719,p0gn130e5rf,parrot,<b><font size=6>Exercise can change one's genome.</font></b>,z,Genetics,Mutation,TRUE,FALSE,FALSE,FALSE,NA,NA,/Users/martincz/GitHub/COGS119/group_fa24_naive_theories/analysis/../data/raw_data/p0gn130e5rf_1732221977961.csv
NA,2039,html-keyboard-response,49,2.0.0,151260,p0gn130e5rf,parrot,<b><font size=6>Pierced ears are heritable.</font></b>,m,Genetics,Heritability,FALSE,FALSE,FALSE,TRUE,NA,NA,/Users/martincz/GitHub/COGS119/group_fa24_naive_theories/analysis/../data/raw_data/p0gn130e5rf_1732221977961.csv
NA,2268,html-keyboard-response,50,2.0.0,154030,p0gn130e5rf,parrot,<b><font size=6>Radiation can change one's genome.</font></b>,z,Genetics,Mutation,TRUE,TRUE,TRUE,TRUE,NA,NA,/Users/martincz/GitHub/COGS119/group_fa24_naive_theories/analysis/../data/raw_data/p0gn130e5rf_1732221977961.csv
NA,2987,html-keyboard-response,51,2.0.0,157519,p0gn130e5rf,parrot,<b><font size=6>Genes that code for eye color can be found in tears.</font></b>,m,Genetics,Expression,TRUE,FALSE,FALSE,TRUE,NA,NA,/Users/martincz/GitHub/COGS119/group_fa24_naive_theories/analysis/../data/raw_data/p0gn130e5rf_1732221977961.csv
NA,2209,html-keyboard-response,52,2.0.0,160230,p0gn130e5rf,parrot,<b><font size=6>Immunity to chickenpox is heritable.</font></b>,m,Genetics,Heritability,TRUE,FALSE,FALSE,TRUE,NA,NA,/Users/martincz/GitHub/COGS119/group_fa24_naive_theories/analysis/../data/raw_data/p0gn130e5rf_1732221977961.csv
NA,2967,html-keyboard-response,53,2.0.0,163700,p0gn130e5rf,parrot,<b><font size=6>Men have more chromosomes than women.</font></b>,m,Genetics,Chromosome,FALSE,FALSE,FALSE,TRUE,NA,NA,/Users/martincz/GitHub/COGS119/group_fa24_naive_theories/analysis/../data/raw_data/p0gn130e5rf_1732221977961.csv
NA,1987,html-keyboard-response,54,2.0.0,166189,p0gn130e5rf,parrot,<b><font size=6>Skin cells have more chromosomes than egg cells.</font></b>,z,Genetics,Chromosome,FALSE,TRUE,TRUE,TRUE,NA,NA,/Users/martincz/GitHub/COGS119/group_fa24_naive_theories/analysis/../data/raw_data/p0gn130e5rf_1732221977961.csv
NA,1156,html-keyboard-response,55,2.0.0,167848,p0gn130e5rf,parrot,<b><font size=6>Sunscreen can change one's genome.</font></b>,m,Genetics,Mutation,FALSE,FALSE,FALSE,TRUE,NA,NA,/Users/martincz/GitHub/COGS119/group_fa24_naive_theories/analysis/../data/raw_data/p0gn130e5rf_1732221977961.csv
NA,2015,html-keyboard-response,56,2.0.0,170365,p0gn130e5rf,parrot,<b><font size=6>Viruses can change one's genome.</font></b>,z,Genetics,Mutation,FALSE,TRUE,TRUE,TRUE,NA,NA,/Users/martincz/GitHub/COGS119/group_fa24_naive_theories/analysis/../data/raw_data/p0gn130e5rf_1732221977961.csv
NA,5956,html-keyboard-response,57,2.0.0,176824,p0gn130e5rf,parrot,<b><font size=6>Adults have more chromosomes than children.</font></b>,m,Genetics,Chromosome,TRUE,FALSE,FALSE,TRUE,NA,NA,/Users/martincz/GitHub/COGS119/group_fa24_naive_theories/analysis/../data/raw_data/p0gn130e5rf_1732221977961.csv
NA,1468,html-keyboard-response,58,2.0.0,178795,p0gn130e5rf,parrot,<b><font size=6>Intelligence is heritable.</font></b>,z,Genetics,Heritability,FALSE,TRUE,TRUE,TRUE,NA,NA,/Users/martincz/GitHub/COGS119/group_fa24_naive_theories/analysis/../data/raw_data/p0gn130e5rf_1732221977961.csv
NA,3115,html-keyboard-response,59,2.0.0,182414,p0gn130e5rf,parrot,<b><font size=6>Two brown-eyed parents could have a blue-eyed baby.</font></b>,z,Genetics,Dominance,FALSE,TRUE,TRUE,TRUE,NA,NA,/Users/martincz/GitHub/COGS119/group_fa24_naive_theories/analysis/../data/raw_data/p0gn130e5rf_1732221977961.csv
NA,2112,html-keyboard-response,60,2.0.0,185027,p0gn130e5rf,parrot,<b><font size=6>Two blue-eyed parents could have a brown-eyed baby.</font></b>,z,Genetics,Dominance,FALSE,FALSE,FALSE,FALSE,NA,NA,/Users/martincz/GitHub/COGS119/group_fa24_naive_theories/analysis/../data/raw_data/p0gn130e5rf_1732221977961.csv
NA,1490,html-keyboard-response,61,2.0.0,187019,p0gn130e5rf,parrot,<b><font size=6>Two brown-eyed parents could have a brown-eyed baby.</font></b>,z,Genetics,Dominance,TRUE,TRUE,TRUE,TRUE,NA,NA,/Users/martincz/GitHub/COGS119/group_fa24_naive_theories/analysis/../data/raw_data/p0gn130e5rf_1732221977961.csv
NA,833,html-keyboard-response,62,2.0.0,188354,p0gn130e5rf,parrot,<b><font size=6>A blue-eyed baby must have two blue-eyed parents.</font></b>,m,Genetics,Dominance,TRUE,FALSE,FALSE,TRUE,NA,NA,/Users/martincz/GitHub/COGS119/group_fa24_naive_theories/analysis/../data/raw_data/p0gn130e5rf_1732221977961.csv
NA,1851,html-keyboard-response,63,2.0.0,190707,p0gn130e5rf,parrot,<b><font size=6>Humans have more chromosomes than mosquitoes.</font></b>,z,Genetics,Chromosome,TRUE,TRUE,TRUE,TRUE,NA,NA,/Users/martincz/GitHub/COGS119/group_fa24_naive_theories/analysis/../data/raw_data/p0gn130e5rf_1732221977961.csv
NA,4953,html-keyboard-response,64,2.0.0,196162,p0gn130e5rf,parrot,<b><font size=6>Genes that code for eye color can be found in the liver.</font></b>,z,Genetics,Expression,FALSE,TRUE,TRUE,TRUE,NA,NA,/Users/martincz/GitHub/COGS119/group_fa24_naive_theories/analysis/../data/raw_data/p0gn130e5rf_1732221977961.csv
NA,1432,html-keyboard-response,65,2.0.0,198096,p0gn130e5rf,parrot,<b><font size=6>Hair color is heritable.</font></b>,z,Genetics,Heritability,TRUE,TRUE,TRUE,TRUE,NA,NA,/Users/martincz/GitHub/COGS119/group_fa24_naive_theories/analysis/../data/raw_data/p0gn130e5rf_1732221977961.csv
NA,5873,html-keyboard-response,66,2.0.0,204472,p0gn130e5rf,parrot,<b><font size=6>Genes that code for eye color can be found in hair.</font></b>,m,Genetics,Expression,FALSE,FALSE,FALSE,TRUE,NA,NA,/Users/martincz/GitHub/COGS119/group_fa24_naive_theories/analysis/../data/raw_data/p0gn130e5rf_1732221977961.csv
NA,1134,html-keyboard-response,67,2.0.0,206108,p0gn130e5rf,parrot,<b><font size=6>Genes that code for eye color can be found in the eye.</font></b>,z,Genetics,Expression,TRUE,TRUE,TRUE,TRUE,NA,NA,/Users/martincz/GitHub/COGS119/group_fa24_naive_theories/analysis/../data/raw_data/p0gn130e5rf_1732221977961.csv
NA,581,html-keyboard-response,68,2.0.0,207191,p0gn130e5rf,parrot,<p><font-size=6>All the following statements are in category:</font></p><b><font size=10><font color=blue>Physiology</font></b>,z,NA,NA,NA,NA,NA,NA,NA,NA,/Users/martincz/GitHub/COGS119/group_fa24_naive_theories/analysis/../data/raw_data/p0gn130e5rf_1732221977961.csv
NA,1138,html-keyboard-response,69,2.0.0,208832,p0gn130e5rf,parrot,<b><font size=6>Plants turn food into energy.</font></b>,z,Physiology,Metabolism,TRUE,FALSE,FALSE,FALSE,NA,NA,/Users/martincz/GitHub/COGS119/group_fa24_naive_theories/analysis/../data/raw_data/p0gn130e5rf_1732221977961.csv
NA,2450,html-keyboard-response,70,2.0.0,211785,p0gn130e5rf,parrot,<b><font size=6>Mushrooms can die.</font></b>,z,Physiology,Death,FALSE,TRUE,TRUE,TRUE,NA,NA,/Users/martincz/GitHub/COGS119/group_fa24_naive_theories/analysis/../data/raw_data/p0gn130e5rf_1732221977961.csv
NA,900,html-keyboard-response,71,2.0.0,213186,p0gn130e5rf,parrot,<b><font size=6>Tigers can reproduce.</font></b>,z,Physiology,Reproduction,TRUE,TRUE,TRUE,TRUE,NA,NA,/Users/martincz/GitHub/COGS119/group_fa24_naive_theories/analysis/../data/raw_data/p0gn130e5rf_1732221977961.csv
NA,4999,html-keyboard-response,72,2.0.0,218687,p0gn130e5rf,parrot,<b><font size=6>Bacteria turn food into energy.</font></b>,z,Physiology,Metabolism,FALSE,TRUE,TRUE,TRUE,NA,NA,/Users/martincz/GitHub/COGS119/group_fa24_naive_theories/analysis/../data/raw_data/p0gn130e5rf_1732221977961.csv
NA,2882,html-keyboard-response,73,2.0.0,222072,p0gn130e5rf,parrot,<b><font size=6>A baby can be a niece or a nephew.</font></b>,z,Physiology,Kinship,TRUE,TRUE,TRUE,TRUE,NA,NA,/Users/martincz/GitHub/COGS119/group_fa24_naive_theories/analysis/../data/raw_data/p0gn130e5rf_1732221977961.csv
NA,5570,html-keyboard-response,74,2.0.0,228143,p0gn130e5rf,parrot,<b><font size=6>A baby can be a mother or a father.</font></b>,m,Physiology,Kinship,FALSE,FALSE,FALSE,TRUE,NA,NA,/Users/martincz/GitHub/COGS119/group_fa24_naive_theories/analysis/../data/raw_data/p0gn130e5rf_1732221977961.csv
NA,1724,html-keyboard-response,75,2.0.0,230369,p0gn130e5rf,parrot,<b><font size=6>Ferns can reproduce.</font></b>,z,Physiology,Reproduction,FALSE,TRUE,TRUE,TRUE,NA,NA,/Users/martincz/GitHub/COGS119/group_fa24_naive_theories/analysis/../data/raw_data/p0gn130e5rf_1732221977961.csv
NA,518,html-keyboard-response,76,2.0.0,231390,p0gn130e5rf,parrot,<b><font size=6>Coral is alive.</font></b>,m,Physiology,Life,FALSE,TRUE,TRUE,FALSE,NA,NA,/Users/martincz/GitHub/COGS119/group_fa24_naive_theories/analysis/../data/raw_data/p0gn130e5rf_1732221977961.csv
NA,1543,html-keyboard-response,77,2.0.0,233435,p0gn130e5rf,parrot,<b><font size=6>Rocks are alive.</font></b>,m,Physiology,Life,FALSE,FALSE,FALSE,TRUE,NA,NA,/Users/martincz/GitHub/COGS119/group_fa24_naive_theories/analysis/../data/raw_data/p0gn130e5rf_1732221977961.csv
NA,2453,html-keyboard-response,78,2.0.0,236391,p0gn130e5rf,parrot,<b><font size=6>Screwdrivers can die.</font></b>,m,Physiology,Death,FALSE,FALSE,FALSE,TRUE,NA,NA,/Users/martincz/GitHub/COGS119/group_fa24_naive_theories/analysis/../data/raw_data/p0gn130e5rf_1732221977961.csv
NA,4207,html-keyboard-response,79,2.0.0,241101,p0gn130e5rf,parrot,<b><font size=6>A baby can be an uncle or an aunt.</font></b>,z,Physiology,Kinship,FALSE,TRUE,TRUE,TRUE,NA,NA,/Users/martincz/GitHub/COGS119/group_fa24_naive_theories/analysis/../data/raw_data/p0gn130e5rf_1732221977961.csv
NA,1555,html-keyboard-response,80,2.0.0,243158,p0gn130e5rf,parrot,<b><font size=6>Fish are alive.</font></b>,z,Physiology,Life,TRUE,TRUE,TRUE,TRUE,NA,NA,/Users/martincz/GitHub/COGS119/group_fa24_naive_theories/analysis/../data/raw_data/p0gn130e5rf_1732221977961.csv
NA,4373,html-keyboard-response,81,2.0.0,248033,p0gn130e5rf,parrot,<b><font size=6>A baby can be identical to an older sibling.</font></b>,m,Physiology,Kinship,TRUE,FALSE,FALSE,TRUE,NA,NA,/Users/martincz/GitHub/COGS119/group_fa24_naive_theories/analysis/../data/raw_data/p0gn130e5rf_1732221977961.csv
NA,1188,html-keyboard-response,82,2.0.0,249723,p0gn130e5rf,parrot,<b><font size=6>Turtles can die.</font></b>,z,Physiology,Death,TRUE,TRUE,TRUE,TRUE,NA,NA,/Users/martincz/GitHub/COGS119/group_fa24_naive_theories/analysis/../data/raw_data/p0gn130e5rf_1732221977961.csv
NA,2865,html-keyboard-response,83,2.0.0,253090,p0gn130e5rf,parrot,<b><font size=6>Chairs can reproduce.</font></b>,m,Physiology,Reproduction,FALSE,FALSE,FALSE,TRUE,NA,NA,/Users/martincz/GitHub/COGS119/group_fa24_naive_theories/analysis/../data/raw_data/p0gn130e5rf_1732221977961.csv
NA,1242,html-keyboard-response,84,2.0.0,254834,p0gn130e5rf,parrot,<b><font size=6>Rocks turn food into energy.</font></b>,m,Physiology,Metabolism,FALSE,FALSE,FALSE,TRUE,NA,NA,/Users/martincz/GitHub/COGS119/group_fa24_naive_theories/analysis/../data/raw_data/p0gn130e5rf_1732221977961.csv
NA,1758,html-keyboard-response,85,2.0.0,257094,p0gn130e5rf,parrot,<b><font size=6>Clouds can die.</font></b>,m,Physiology,Death,TRUE,FALSE,FALSE,TRUE,NA,NA,/Users/martincz/GitHub/COGS119/group_fa24_naive_theories/analysis/../data/raw_data/p0gn130e5rf_1732221977961.csv
NA,878,html-keyboard-response,86,2.0.0,258474,p0gn130e5rf,parrot,<b><font size=6>Caterpillars can reproduce.</font></b>,z,Physiology,Reproduction,TRUE,FALSE,FALSE,FALSE,NA,NA,/Users/martincz/GitHub/COGS119/group_fa24_naive_theories/analysis/../data/raw_data/p0gn130e5rf_1732221977961.csv
NA,1833,html-keyboard-response,87,2.0.0,260809,p0gn130e5rf,parrot,<b><font size=6>The sun is alive.</font></b>,m,Physiology,Life,TRUE,FALSE,FALSE,TRUE,NA,NA,/Users/martincz/GitHub/COGS119/group_fa24_naive_theories/analysis/../data/raw_data/p0gn130e5rf_1732221977961.csv
NA,2121,html-keyboard-response,88,2.0.0,263433,p0gn130e5rf,parrot,<b><font size=6>People turn food into energy.</font></b>,z,Physiology,Metabolism,TRUE,TRUE,TRUE,TRUE,NA,NA,/Users/martincz/GitHub/COGS119/group_fa24_naive_theories/analysis/../data/raw_data/p0gn130e5rf_1732221977961.csv
NA,648,html-keyboard-response,89,2.0.0,264583,p0gn130e5rf,parrot,<p><font-size=6>All the following statements are in category:</font></p><b><font size=10><font color=blue>Fractions</font></b>,z,NA,NA,NA,NA,NA,NA,NA,NA,/Users/martincz/GitHub/COGS119/group_fa24_naive_theories/analysis/../data/raw_data/p0gn130e5rf_1732221977961.csv
NA,3115,html-keyboard-response,90,2.0.0,268201,p0gn130e5rf,parrot,<b><font size=6>4 divided by 1/2 is 8.</font></b>,z,Fractions,Division,FALSE,TRUE,TRUE,TRUE,NA,NA,/Users/martincz/GitHub/COGS119/group_fa24_naive_theories/analysis/../data/raw_data/p0gn130e5rf_1732221977961.csv
NA,1984,html-keyboard-response,91,2.0.0,270687,p0gn130e5rf,parrot,<b><font size=6>There are numbers between 10 and 10.</font></b>,z,Fractions,Infinite density,FALSE,FALSE,FALSE,FALSE,NA,NA,/Users/martincz/GitHub/COGS119/group_fa24_naive_theories/analysis/../data/raw_data/p0gn130e5rf_1732221977961.csv
NA,1971,html-keyboard-response,92,2.0.0,273161,p0gn130e5rf,parrot,<b><font size=6>1/3 plus 1/3 is 1/3.</font></b>,m,Fractions,Addition,FALSE,FALSE,FALSE,TRUE,NA,NA,/Users/martincz/GitHub/COGS119/group_fa24_naive_theories/analysis/../data/raw_data/p0gn130e5rf_1732221977961.csv
NA,2456,html-keyboard-response,93,2.0.0,276120,p0gn130e5rf,parrot,<b><font size=6>There are numbers between 1 and 3.</font></b>,z,Fractions,Infinite density,TRUE,TRUE,TRUE,TRUE,NA,NA,/Users/martincz/GitHub/COGS119/group_fa24_naive_theories/analysis/../data/raw_data/p0gn130e5rf_1732221977961.csv
NA,1249,html-keyboard-response,94,2.0.0,277871,p0gn130e5rf,parrot,<b><font size=6>1/3 plus 1/3 is 2/3.</font></b>,z,Fractions,Addition,TRUE,TRUE,TRUE,TRUE,NA,NA,/Users/martincz/GitHub/COGS119/group_fa24_naive_theories/analysis/../data/raw_data/p0gn130e5rf_1732221977961.csv
NA,5478,html-keyboard-response,95,2.0.0,283851,p0gn130e5rf,parrot,<b><font size=6>2/3 plus 2/4 is 2/7.</font></b>,m,Fractions,Addition,TRUE,FALSE,FALSE,TRUE,NA,NA,/Users/martincz/GitHub/COGS119/group_fa24_naive_theories/analysis/../data/raw_data/p0gn130e5rf_1732221977961.csv
NA,2184,html-keyboard-response,96,2.0.0,286535,p0gn130e5rf,parrot,<b><font size=6>There are numbers between 1/10 and 10/100.</font></b>,z,Fractions,Infinite density,TRUE,FALSE,FALSE,FALSE,NA,NA,/Users/martincz/GitHub/COGS119/group_fa24_naive_theories/analysis/../data/raw_data/p0gn130e5rf_1732221977961.csv
NA,1945,html-keyboard-response,97,2.0.0,288982,p0gn130e5rf,parrot,<b><font size=6>1/17 is greater than 1/9.</font></b>,m,Fractions,Ordering,TRUE,FALSE,FALSE,TRUE,NA,NA,/Users/martincz/GitHub/COGS119/group_fa24_naive_theories/analysis/../data/raw_data/p0gn130e5rf_1732221977961.csv
NA,3372,html-keyboard-response,98,2.0.0,292857,p0gn130e5rf,parrot,<b><font size=6>All integers are expressible as fractions.</font></b>,z,Fractions,Conversion,FALSE,TRUE,TRUE,TRUE,NA,NA,/Users/martincz/GitHub/COGS119/group_fa24_naive_theories/analysis/../data/raw_data/p0gn130e5rf_1732221977961.csv
NA,8201,html-keyboard-response,99,2.0.0,301559,p0gn130e5rf,parrot,<b><font size=6>1/10 plus 1/10 is 1/5.</font></b>,z,Fractions,Addition,FALSE,TRUE,TRUE,TRUE,NA,NA,/Users/martincz/GitHub/COGS119/group_fa24_naive_theories/analysis/../data/raw_data/p0gn130e5rf_1732221977961.csv
NA,1980,html-keyboard-response,100,2.0.0,304041,p0gn130e5rf,parrot,<b><font size=6>All fractions are expressible as decimals.</font></b>,z,Fractions,Conversion,TRUE,FALSE,FALSE,FALSE,NA,NA,/Users/martincz/GitHub/COGS119/group_fa24_naive_theories/analysis/../data/raw_data/p0gn130e5rf_1732221977961.csv
NA,1406,html-keyboard-response,101,2.0.0,305949,p0gn130e5rf,parrot,<b><font size=6>All decimals are expressible as fractions.</font></b>,z,Fractions,Conversion,TRUE,TRUE,TRUE,TRUE,NA,NA,/Users/martincz/GitHub/COGS119/group_fa24_naive_theories/analysis/../data/raw_data/p0gn130e5rf_1732221977961.csv
NA,4116,html-keyboard-response,102,2.0.0,310567,p0gn130e5rf,parrot,<b><font size=6>4 divided by 2/1 is 2.</font></b>,z,Fractions,Division,TRUE,TRUE,TRUE,TRUE,NA,NA,/Users/martincz/GitHub/COGS119/group_fa24_naive_theories/analysis/../data/raw_data/p0gn130e5rf_1732221977961.csv
NA,3137,html-keyboard-response,103,2.0.0,314206,p0gn130e5rf,parrot,<b><font size=6>1/17 is greater than 16/17.</font></b>,m,Fractions,Ordering,FALSE,FALSE,FALSE,TRUE,NA,NA,/Users/martincz/GitHub/COGS119/group_fa24_naive_theories/analysis/../data/raw_data/p0gn130e5rf_1732221977961.csv
NA,2076,html-keyboard-response,104,2.0.0,316783,p0gn130e5rf,parrot,<b><font size=6>1/13 is greater than 1/30.</font></b>,z,Fractions,Ordering,FALSE,TRUE,TRUE,TRUE,NA,NA,/Users/martincz/GitHub/COGS119/group_fa24_naive_theories/analysis/../data/raw_data/p0gn130e5rf_1732221977961.csv
NA,4811,html-keyboard-response,105,2.0.0,322096,p0gn130e5rf,parrot,<b><font size=6>All fractions are expressible as integers.</font></b>,z,Fractions,Conversion,FALSE,FALSE,FALSE,FALSE,NA,NA,/Users/martincz/GitHub/COGS119/group_fa24_naive_theories/analysis/../data/raw_data/p0gn130e5rf_1732221977961.csv
NA,3308,html-keyboard-response,106,2.0.0,325907,p0gn130e5rf,parrot,<b><font size=6>12/13 is greater than 1/13.</font></b>,z,Fractions,Ordering,TRUE,TRUE,TRUE,TRUE,NA,NA,/Users/martincz/GitHub/COGS119/group_fa24_naive_theories/analysis/../data/raw_data/p0gn130e5rf_1732221977961.csv
NA,1431,html-keyboard-response,107,2.0.0,327840,p0gn130e5rf,parrot,<b><font size=6>8 divided by 2/1 is 3.</font></b>,m,Fractions,Division,FALSE,FALSE,FALSE,TRUE,NA,NA,/Users/martincz/GitHub/COGS119/group_fa24_naive_theories/analysis/../data/raw_data/p0gn130e5rf_1732221977961.csv
NA,2015,html-keyboard-response,108,2.0.0,330358,p0gn130e5rf,parrot,<b><font size=6>There are numbers between 1/3 and 1/2.</font></b>,z,Fractions,Infinite density,FALSE,TRUE,TRUE,TRUE,NA,NA,/Users/martincz/GitHub/COGS119/group_fa24_naive_theories/analysis/../data/raw_data/p0gn130e5rf_1732221977961.csv
NA,3077,html-keyboard-response,109,2.0.0,333936,p0gn130e5rf,parrot,<b><font size=6>8 divided by 1/2 is 4.</font></b>,m,Fractions,Division,TRUE,FALSE,FALSE,TRUE,NA,NA,/Users/martincz/GitHub/COGS119/group_fa24_naive_theories/analysis/../data/raw_data/p0gn130e5rf_1732221977961.csv
NA,9203,survey-text,110,2.0.0,343647,p0gn130e5rf,parrot,NA,"{""reflection1"":""See how we associate claims""}",NA,NA,NA,NA,NA,NA,See how we associate claims,NA,/Users/martincz/GitHub/COGS119/group_fa24_naive_theories/analysis/../data/raw_data/p0gn130e5rf_1732221977961.csv
NA,2332,survey-text,111,2.0.0,345983,p0gn130e5rf,parrot,NA,"{""reflection2"":""Nope""}",NA,NA,NA,NA,NA,NA,NA,Nope,/Users/martincz/GitHub/COGS119/group_fa24_naive_theories/analysis/../data/raw_data/p0gn130e5rf_1732221977961.csv
TRUE,1803,fullscreen,0,null,2813,p1s0mtu3x9e,p73,NA,NA,NA,NA,NA,NA,NA,NA,NA,NA,/Users/martincz/GitHub/COGS119/group_fa24_naive_theories/analysis/../data/raw_data/p1s0mtu3x9e_1732222121511.csv
NA,1627,html-keyboard-response,1,2.0.0,4442,p1s0mtu3x9e,p73,This trial will be in fullscreen mode. Press any key to begin.,m,NA,NA,NA,NA,NA,NA,NA,NA,/Users/martincz/GitHub/COGS119/group_fa24_naive_theories/analysis/../data/raw_data/p1s0mtu3x9e_1732222121511.csv
NA,935,html-keyboard-response,2,2.0.0,5879,p1s0mtu3x9e,p73,Welcome to the experiment. Press any key to begin.,m,NA,NA,NA,NA,NA,NA,NA,NA,/Users/martincz/GitHub/COGS119/group_fa24_naive_theories/analysis/../data/raw_data/p1s0mtu3x9e_1732222121511.csv
NA,5566,survey-text,3,2.0.0,11953,p1s0mtu3x9e,p73,NA,"{""participant_id"":""p73""}",NA,NA,NA,NA,NA,NA,NA,NA,/Users/martincz/GitHub/COGS119/group_fa24_naive_theories/analysis/../data/raw_data/p1s0mtu3x9e_1732222121511.csv
NA,9965,html-keyboard-response,4,2.0.0,22422,p1s0mtu3x9e,p73,"<p>Welcome to the experiment!</p><p>In this task, you will see a series of scientific statements.</p><p>Your job is to decide whether each statement is true or false.</p><p>Press 'z' if you think the statement is true and 'm' if you think it is false.</p><p>Press any key to begin.</p>",m,NA,NA,NA,NA,NA,NA,NA,NA,/Users/martincz/GitHub/COGS119/group_fa24_naive_theories/analysis/../data/raw_data/p1s0mtu3x9e_1732222121511.csv
NA,NA,html-keyboard-response,5,2.0.0,24126,p1s0mtu3x9e,p73,<p><font-size=6>All the following statements are in category:</font></p><b><font size=10><font color=blue>Fractions</font></b>,null,NA,NA,NA,NA,NA,NA,NA,NA,/Users/martincz/GitHub/COGS119/group_fa24_naive_theories/analysis/../data/raw_data/p1s0mtu3x9e_1732222121511.csv
NA,4830,html-keyboard-response,6,2.0.0,29459,p1s0mtu3x9e,p73,<b><font size=6>1/3 plus 1/3 is 2/3.</font></b>,z,Fractions,Addition,TRUE,TRUE,TRUE,TRUE,NA,NA,/Users/martincz/GitHub/COGS119/group_fa24_naive_theories/analysis/../data/raw_data/p1s0mtu3x9e_1732222121511.csv
NA,2755,html-keyboard-response,7,2.0.0,32716,p1s0mtu3x9e,p73,<b><font size=6>There are numbers between 10 and 10.</font></b>,m,Fractions,Infinite density,FALSE,FALSE,FALSE,TRUE,NA,NA,/Users/martincz/GitHub/COGS119/group_fa24_naive_theories/analysis/../data/raw_data/p1s0mtu3x9e_1732222121511.csv
NA,3802,html-keyboard-response,8,2.0.0,37021,p1s0mtu3x9e,p73,<b><font size=6>There are numbers between 1/3 and 1/2.</font></b>,z,Fractions,Infinite density,FALSE,TRUE,TRUE,TRUE,NA,NA,/Users/martincz/GitHub/COGS119/group_fa24_naive_theories/analysis/../data/raw_data/p1s0mtu3x9e_1732222121511.csv
NA,11103,html-keyboard-response,9,2.0.0,48626,p1s0mtu3x9e,p73,<b><font size=6>2/3 plus 2/4 is 2/7.</font></b>,m,Fractions,Addition,TRUE,FALSE,FALSE,TRUE,NA,NA,/Users/martincz/GitHub/COGS119/group_fa24_naive_theories/analysis/../data/raw_data/p1s0mtu3x9e_1732222121511.csv
NA,6677,html-keyboard-response,10,2.0.0,55805,p1s0mtu3x9e,p73,<b><font size=6>4 divided by 1/2 is 8.</font></b>,z,Fractions,Division,FALSE,TRUE,TRUE,TRUE,NA,NA,/Users/martincz/GitHub/COGS119/group_fa24_naive_theories/analysis/../data/raw_data/p1s0mtu3x9e_1732222121511.csv
NA,1820,html-keyboard-response,11,2.0.0,58127,p1s0mtu3x9e,p73,<b><font size=6>There are numbers between 1 and 3.</font></b>,z,Fractions,Infinite density,TRUE,TRUE,TRUE,TRUE,NA,NA,/Users/martincz/GitHub/COGS119/group_fa24_naive_theories/analysis/../data/raw_data/p1s0mtu3x9e_1732222121511.csv
NA,5614,html-keyboard-response,12,2.0.0,64244,p1s0mtu3x9e,p73,<b><font size=6>1/13 is greater than 1/30.</font></b>,z,Fractions,Ordering,FALSE,TRUE,TRUE,TRUE,NA,NA,/Users/martincz/GitHub/COGS119/group_fa24_naive_theories/analysis/../data/raw_data/p1s0mtu3x9e_1732222121511.csv
NA,3256,html-keyboard-response,13,2.0.0,68003,p1s0mtu3x9e,p73,<b><font size=6>1/3 plus 1/3 is 1/3.</font></b>,m,Fractions,Addition,FALSE,FALSE,FALSE,TRUE,NA,NA,/Users/martincz/GitHub/COGS119/group_fa24_naive_theories/analysis/../data/raw_data/p1s0mtu3x9e_1732222121511.csv
NA,3247,html-keyboard-response,14,2.0.0,71752,p1s0mtu3x9e,p73,<b><font size=6>8 divided by 1/2 is 4.</font></b>,m,Fractions,Division,TRUE,FALSE,FALSE,TRUE,NA,NA,/Users/martincz/GitHub/COGS119/group_fa24_naive_theories/analysis/../data/raw_data/p1s0mtu3x9e_1732222121511.csv
NA,9651,html-keyboard-response,15,2.0.0,81906,p1s0mtu3x9e,p73,<b><font size=6>8 divided by 2/1 is 3.</font></b>,m,Fractions,Division,FALSE,FALSE,FALSE,TRUE,NA,NA,/Users/martincz/GitHub/COGS119/group_fa24_naive_theories/analysis/../data/raw_data/p1s0mtu3x9e_1732222121511.csv
NA,3828,html-keyboard-response,16,2.0.0,86237,p1s0mtu3x9e,p73,<b><font size=6>1/17 is greater than 16/17.</font></b>,m,Fractions,Ordering,FALSE,FALSE,FALSE,TRUE,NA,NA,/Users/martincz/GitHub/COGS119/group_fa24_naive_theories/analysis/../data/raw_data/p1s0mtu3x9e_1732222121511.csv
NA,2675,html-keyboard-response,17,2.0.0,89413,p1s0mtu3x9e,p73,<b><font size=6>1/10 plus 1/10 is 1/5.</font></b>,z,Fractions,Addition,FALSE,TRUE,TRUE,TRUE,NA,NA,/Users/martincz/GitHub/COGS119/group_fa24_naive_theories/analysis/../data/raw_data/p1s0mtu3x9e_1732222121511.csv
NA,4779,html-keyboard-response,18,2.0.0,94695,p1s0mtu3x9e,p73,<b><font size=6>4 divided by 2/1 is 2.</font></b>,z,Fractions,Division,TRUE,TRUE,TRUE,TRUE,NA,NA,/Users/martincz/GitHub/COGS119/group_fa24_naive_theories/analysis/../data/raw_data/p1s0mtu3x9e_1732222121511.csv
NA,5323,html-keyboard-response,19,2.0.0,100520,p1s0mtu3x9e,p73,<b><font size=6>1/17 is greater than 1/9.</font></b>,m,Fractions,Ordering,TRUE,FALSE,FALSE,TRUE,NA,NA,/Users/martincz/GitHub/COGS119/group_fa24_naive_theories/analysis/../data/raw_data/p1s0mtu3x9e_1732222121511.csv
NA,2074,html-keyboard-response,20,2.0.0,103097,p1s0mtu3x9e,p73,<b><font size=6>12/13 is greater than 1/13.</font></b>,z,Fractions,Ordering,TRUE,TRUE,TRUE,TRUE,NA,NA,/Users/martincz/GitHub/COGS119/group_fa24_naive_theories/analysis/../data/raw_data/p1s0mtu3x9e_1732222121511.csv
NA,3644,html-keyboard-response,21,2.0.0,107242,p1s0mtu3x9e,p73,<b><font size=6>All decimals are expressible as fractions.</font></b>,z,Fractions,Conversion,TRUE,TRUE,TRUE,TRUE,NA,NA,/Users/martincz/GitHub/COGS119/group_fa24_naive_theories/analysis/../data/raw_data/p1s0mtu3x9e_1732222121511.csv
NA,3951,html-keyboard-response,22,2.0.0,111695,p1s0mtu3x9e,p73,<b><font size=6>All integers are expressible as fractions.</font></b>,z,Fractions,Conversion,FALSE,TRUE,TRUE,TRUE,NA,NA,/Users/martincz/GitHub/COGS119/group_fa24_naive_theories/analysis/../data/raw_data/p1s0mtu3x9e_1732222121511.csv
NA,6503,html-keyboard-response,23,2.0.0,118701,p1s0mtu3x9e,p73,<b><font size=6>There are numbers between 1/10 and 10/100.</font></b>,m,Fractions,Infinite density,TRUE,FALSE,FALSE,TRUE,NA,NA,/Users/martincz/GitHub/COGS119/group_fa24_naive_theories/analysis/../data/raw_data/p1s0mtu3x9e_1732222121511.csv
NA,8484,html-keyboard-response,24,2.0.0,127686,p1s0mtu3x9e,p73,<b><font size=6>All fractions are expressible as integers.</font></b>,m,Fractions,Conversion,FALSE,FALSE,FALSE,TRUE,NA,NA,/Users/martincz/GitHub/COGS119/group_fa24_naive_theories/analysis/../data/raw_data/p1s0mtu3x9e_1732222121511.csv
NA,6148,html-keyboard-response,25,2.0.0,134337,p1s0mtu3x9e,p73,<b><font size=6>All fractions are expressible as decimals.</font></b>,z,Fractions,Conversion,TRUE,FALSE,FALSE,FALSE,NA,NA,/Users/martincz/GitHub/COGS119/group_fa24_naive_theories/analysis/../data/raw_data/p1s0mtu3x9e_1732222121511.csv
NA,NA,html-keyboard-response,26,2.0.0,136541,p1s0mtu3x9e,p73,<p><font-size=6>All the following statements are in category:</font></p><b><font size=10><font color=blue>Waves</font></b>,null,NA,NA,NA,NA,NA,NA,NA,NA,/Users/martincz/GitHub/COGS119/group_fa24_naive_theories/analysis/../data/raw_data/p1s0mtu3x9e_1732222121511.csv
NA,5404,html-keyboard-response,27,2.0.0,142448,p1s0mtu3x9e,p73,<b><font size=6>White light contains all colors of light.</font></b>,z,Waves,Light,FALSE,TRUE,TRUE,TRUE,NA,NA,/Users/martincz/GitHub/COGS119/group_fa24_naive_theories/analysis/../data/raw_data/p1s0mtu3x9e_1732222121511.csv
NA,1679,html-keyboard-response,28,2.0.0,144629,p1s0mtu3x9e,p73,<b><font size=6>Sounds can be dead or alive.</font></b>,m,Waves,Sound,FALSE,FALSE,FALSE,TRUE,NA,NA,/Users/martincz/GitHub/COGS119/group_fa24_naive_theories/analysis/../data/raw_data/p1s0mtu3x9e_1732222121511.csv
NA,3441,html-keyboard-response,29,2.0.0,148572,p1s0mtu3x9e,p73,<b><font size=6>Red objects reflect blue light.</font></b>,z,Waves,Color,FALSE,FALSE,FALSE,FALSE,NA,NA,/Users/martincz/GitHub/COGS119/group_fa24_naive_theories/analysis/../data/raw_data/p1s0mtu3x9e_1732222121511.csv
NA,3100,html-keyboard-response,30,2.0.0,152173,p1s0mtu3x9e,p73,<b><font size=6>Rainbows contain all colors of light.</font></b>,z,Waves,Light,TRUE,TRUE,TRUE,TRUE,NA,NA,/Users/martincz/GitHub/COGS119/group_fa24_naive_theories/analysis/../data/raw_data/p1s0mtu3x9e_1732222121511.csv
NA,1789,html-keyboard-response,31,2.0.0,154465,p1s0mtu3x9e,p73,<b><font size=6>Sounds can be loud or quiet.</font></b>,z,Waves,Sound,TRUE,TRUE,TRUE,TRUE,NA,NA,/Users/martincz/GitHub/COGS119/group_fa24_naive_theories/analysis/../data/raw_data/p1s0mtu3x9e_1732222121511.csv
NA,3847,html-keyboard-response,32,2.0.0,158814,p1s0mtu3x9e,p73,<b><font size=6>Red objects reflect red light.</font></b>,z,Waves,Color,TRUE,TRUE,TRUE,TRUE,NA,NA,/Users/martincz/GitHub/COGS119/group_fa24_naive_theories/analysis/../data/raw_data/p1s0mtu3x9e_1732222121511.csv
NA,4851,html-keyboard-response,33,2.0.0,164167,p1s0mtu3x9e,p73,<b><font size=6>Foam reflects sound.</font></b>,m,Waves,Reflection,FALSE,FALSE,FALSE,TRUE,NA,NA,/Users/martincz/GitHub/COGS119/group_fa24_naive_theories/analysis/../data/raw_data/p1s0mtu3x9e_1732222121511.csv
NA,2935,html-keyboard-response,34,2.0.0,167604,p1s0mtu3x9e,p73,<b><font size=6>Black objects reflect all colors of light.</font></b>,m,Waves,Light,TRUE,FALSE,FALSE,TRUE,NA,NA,/Users/martincz/GitHub/COGS119/group_fa24_naive_theories/analysis/../data/raw_data/p1s0mtu3x9e_1732222121511.csv
NA,2667,html-keyboard-response,35,2.0.0,170772,p1s0mtu3x9e,p73,<b><font size=6>Mirrors reflect light.</font></b>,z,Waves,Reflection,TRUE,TRUE,TRUE,TRUE,NA,NA,/Users/martincz/GitHub/COGS119/group_fa24_naive_theories/analysis/../data/raw_data/p1s0mtu3x9e_1732222121511.csv
NA,4349,html-keyboard-response,36,2.0.0,175623,p1s0mtu3x9e,p73,<b><font size=6>Red objects absorb blue light.</font></b>,z,Waves,Color,FALSE,TRUE,TRUE,TRUE,NA,NA,/Users/martincz/GitHub/COGS119/group_fa24_naive_theories/analysis/../data/raw_data/p1s0mtu3x9e_1732222121511.csv
NA,1941,html-keyboard-response,37,2.0.0,178067,p1s0mtu3x9e,p73,<b><font size=6>Prisms reflect light.</font></b>,z,Waves,Reflection,TRUE,FALSE,FALSE,FALSE,NA,NA,/Users/martincz/GitHub/COGS119/group_fa24_naive_theories/analysis/../data/raw_data/p1s0mtu3x9e_1732222121511.csv
NA,6939,html-keyboard-response,38,2.0.0,185508,p1s0mtu3x9e,p73,<b><font size=6>Shadows contain all colors of light.</font></b>,m,Waves,Light,FALSE,FALSE,FALSE,TRUE,NA,NA,/Users/martincz/GitHub/COGS119/group_fa24_naive_theories/analysis/../data/raw_data/p1s0mtu3x9e_1732222121511.csv
NA,2165,html-keyboard-response,39,2.0.0,188174,p1s0mtu3x9e,p73,<b><font size=6>Sound travels through air.</font></b>,z,Waves,Propagation,TRUE,TRUE,TRUE,TRUE,NA,NA,/Users/martincz/GitHub/COGS119/group_fa24_naive_theories/analysis/../data/raw_data/p1s0mtu3x9e_1732222121511.csv
NA,1436,html-keyboard-response,40,2.0.0,190112,p1s0mtu3x9e,p73,<b><font size=6>Sound travels through foam.</font></b>,m,Waves,Propagation,FALSE,FALSE,FALSE,TRUE,NA,NA,/Users/martincz/GitHub/COGS119/group_fa24_naive_theories/analysis/../data/raw_data/p1s0mtu3x9e_1732222121511.csv
NA,4294,html-keyboard-response,41,2.0.0,194908,p1s0mtu3x9e,p73,<b><font size=6>Red objects absorb red light.</font></b>,m,Waves,Color,TRUE,FALSE,FALSE,TRUE,NA,NA,/Users/martincz/GitHub/COGS119/group_fa24_naive_theories/analysis/../data/raw_data/p1s0mtu3x9e_1732222121511.csv
NA,4206,html-keyboard-response,42,2.0.0,199616,p1s0mtu3x9e,p73,<b><font size=6>Sound travels through metal.</font></b>,m,Waves,Propagation,FALSE,TRUE,TRUE,FALSE,NA,NA,/Users/martincz/GitHub/COGS119/group_fa24_naive_theories/analysis/../data/raw_data/p1s0mtu3x9e_1732222121511.csv
NA,2577,html-keyboard-response,43,2.0.0,202695,p1s0mtu3x9e,p73,<b><font size=6>Sounds can be near or far.</font></b>,z,Waves,Sound,TRUE,FALSE,FALSE,FALSE,NA,NA,/Users/martincz/GitHub/COGS119/group_fa24_naive_theories/analysis/../data/raw_data/p1s0mtu3x9e_1732222121511.csv
NA,2465,html-keyboard-response,44,2.0.0,205662,p1s0mtu3x9e,p73,<b><font size=6>Sound travels through a vacuum.</font></b>,m,Waves,Propagation,TRUE,FALSE,FALSE,TRUE,NA,NA,/Users/martincz/GitHub/COGS119/group_fa24_naive_theories/analysis/../data/raw_data/p1s0mtu3x9e_1732222121511.csv
NA,2176,html-keyboard-response,45,2.0.0,208340,p1s0mtu3x9e,p73,<b><font size=6>Sounds can be direct or reflected.</font></b>,z,Waves,Sound,FALSE,TRUE,TRUE,TRUE,NA,NA,/Users/martincz/GitHub/COGS119/group_fa24_naive_theories/analysis/../data/raw_data/p1s0mtu3x9e_1732222121511.csv
NA,2132,html-keyboard-response,46,2.0.0,210974,p1s0mtu3x9e,p73,<b><font size=6>Mirrors reflect sound.</font></b>,m,Waves,Reflection,FALSE,TRUE,TRUE,FALSE,NA,NA,/Users/martincz/GitHub/COGS119/group_fa24_naive_theories/analysis/../data/raw_data/p1s0mtu3x9e_1732222121511.csv
NA,NA,html-keyboard-response,47,2.0.0,213178,p1s0mtu3x9e,p73,<p><font-size=6>All the following statements are in category:</font></p><b><font size=10><font color=blue>Genetics</font></b>,null,NA,NA,NA,NA,NA,NA,NA,NA,/Users/martincz/GitHub/COGS119/group_fa24_naive_theories/analysis/../data/raw_data/p1s0mtu3x9e_1732222121511.csv
NA,5581,html-keyboard-response,48,2.0.0,219262,p1s0mtu3x9e,p73,<b><font size=6>Skin cells have more chromosomes than egg cells.</font></b>,m,Genetics,Chromosome,FALSE,TRUE,TRUE,FALSE,NA,NA,/Users/martincz/GitHub/COGS119/group_fa24_naive_theories/analysis/../data/raw_data/p1s0mtu3x9e_1732222121511.csv
NA,1839,html-keyboard-response,49,2.0.0,221603,p1s0mtu3x9e,p73,<b><font size=6>Pierced ears are heritable.</font></b>,m,Genetics,Heritability,FALSE,FALSE,FALSE,TRUE,NA,NA,/Users/martincz/GitHub/COGS119/group_fa24_naive_theories/analysis/../data/raw_data/p1s0mtu3x9e_1732222121511.csv
NA,2019,html-keyboard-response,50,2.0.0,224124,p1s0mtu3x9e,p73,<b><font size=6>Hair color is heritable.</font></b>,z,Genetics,Heritability,TRUE,TRUE,TRUE,TRUE,NA,NA,/Users/martincz/GitHub/COGS119/group_fa24_naive_theories/analysis/../data/raw_data/p1s0mtu3x9e_1732222121511.csv
NA,2192,html-keyboard-response,51,2.0.0,226818,p1s0mtu3x9e,p73,<b><font size=6>A blue-eyed baby must have two blue-eyed parents.</font></b>,m,Genetics,Dominance,TRUE,FALSE,FALSE,TRUE,NA,NA,/Users/martincz/GitHub/COGS119/group_fa24_naive_theories/analysis/../data/raw_data/p1s0mtu3x9e_1732222121511.csv
NA,2709,html-keyboard-response,52,2.0.0,230029,p1s0mtu3x9e,p73,<b><font size=6>Genes that code for eye color can be found in the eye.</font></b>,m,Genetics,Expression,TRUE,TRUE,TRUE,FALSE,NA,NA,/Users/martincz/GitHub/COGS119/group_fa24_naive_theories/analysis/../data/raw_data/p1s0mtu3x9e_1732222121511.csv
NA,2762,html-keyboard-response,53,2.0.0,233293,p1s0mtu3x9e,p73,<b><font size=6>Radiation can change one's genome.</font></b>,z,Genetics,Mutation,TRUE,TRUE,TRUE,TRUE,NA,NA,/Users/martincz/GitHub/COGS119/group_fa24_naive_theories/analysis/../data/raw_data/p1s0mtu3x9e_1732222121511.csv
NA,4834,html-keyboard-response,54,2.0.0,238629,p1s0mtu3x9e,p73,<b><font size=6>Men have more chromosomes than women.</font></b>,m,Genetics,Chromosome,FALSE,FALSE,FALSE,TRUE,NA,NA,/Users/martincz/GitHub/COGS119/group_fa24_naive_theories/analysis/../data/raw_data/p1s0mtu3x9e_1732222121511.csv
NA,2810,html-keyboard-response,55,2.0.0,241942,p1s0mtu3x9e,p73,<b><font size=6>Two brown-eyed parents could have a brown-eyed baby.</font></b>,z,Genetics,Dominance,TRUE,TRUE,TRUE,TRUE,NA,NA,/Users/martincz/GitHub/COGS119/group_fa24_naive_theories/analysis/../data/raw_data/p1s0mtu3x9e_1732222121511.csv
NA,2622,html-keyboard-response,56,2.0.0,245066,p1s0mtu3x9e,p73,<b><font size=6>Humans have more chromosomes than mosquitoes.</font></b>,z,Genetics,Chromosome,TRUE,TRUE,TRUE,TRUE,NA,NA,/Users/martincz/GitHub/COGS119/group_fa24_naive_theories/analysis/../data/raw_data/p1s0mtu3x9e_1732222121511.csv
NA,3056,html-keyboard-response,57,2.0.0,248624,p1s0mtu3x9e,p73,<b><font size=6>Genes that code for eye color can be found in hair.</font></b>,z,Genetics,Expression,FALSE,FALSE,FALSE,FALSE,NA,NA,/Users/martincz/GitHub/COGS119/group_fa24_naive_theories/analysis/../data/raw_data/p1s0mtu3x9e_1732222121511.csv
NA,3929,html-keyboard-response,58,2.0.0,253055,p1s0mtu3x9e,p73,<b><font size=6>Two blue-eyed parents could have a brown-eyed baby.</font></b>,z,Genetics,Dominance,FALSE,FALSE,FALSE,FALSE,NA,NA,/Users/martincz/GitHub/COGS119/group_fa24_naive_theories/analysis/../data/raw_data/p1s0mtu3x9e_1732222121511.csv
NA,2922,html-keyboard-response,59,2.0.0,256480,p1s0mtu3x9e,p73,<b><font size=6>Exercise can change one's genome.</font></b>,m,Genetics,Mutation,TRUE,FALSE,FALSE,TRUE,NA,NA,/Users/martincz/GitHub/COGS119/group_fa24_naive_theories/analysis/../data/raw_data/p1s0mtu3x9e_1732222121511.csv
NA,3105,html-keyboard-response,60,2.0.0,260086,p1s0mtu3x9e,p73,<b><font size=6>Genes that code for eye color can be found in tears.</font></b>,m,Genetics,Expression,TRUE,FALSE,FALSE,TRUE,NA,NA,/Users/martincz/GitHub/COGS119/group_fa24_naive_theories/analysis/../data/raw_data/p1s0mtu3x9e_1732222121511.csv
NA,5301,html-keyboard-response,61,2.0.0,265890,p1s0mtu3x9e,p73,<b><font size=6>Two brown-eyed parents could have a blue-eyed baby.</font></b>,z,Genetics,Dominance,FALSE,TRUE,TRUE,TRUE,NA,NA,/Users/martincz/GitHub/COGS119/group_fa24_naive_theories/analysis/../data/raw_data/p1s0mtu3x9e_1732222121511.csv
NA,1580,html-keyboard-response,62,2.0.0,267972,p1s0mtu3x9e,p73,<b><font size=6>Intelligence is heritable.</font></b>,z,Genetics,Heritability,FALSE,TRUE,TRUE,TRUE,NA,NA,/Users/martincz/GitHub/COGS119/group_fa24_naive_theories/analysis/../data/raw_data/p1s0mtu3x9e_1732222121511.csv
NA,2753,html-keyboard-response,63,2.0.0,271227,p1s0mtu3x9e,p73,<b><font size=6>Adults have more chromosomes than children.</font></b>,m,Genetics,Chromosome,TRUE,FALSE,FALSE,TRUE,NA,NA,/Users/martincz/GitHub/COGS119/group_fa24_naive_theories/analysis/../data/raw_data/p1s0mtu3x9e_1732222121511.csv
NA,1976,html-keyboard-response,64,2.0.0,273706,p1s0mtu3x9e,p73,<b><font size=6>Sunscreen can change one's genome.</font></b>,m,Genetics,Mutation,FALSE,FALSE,FALSE,TRUE,NA,NA,/Users/martincz/GitHub/COGS119/group_fa24_naive_theories/analysis/../data/raw_data/p1s0mtu3x9e_1732222121511.csv
NA,1907,html-keyboard-response,65,2.0.0,276115,p1s0mtu3x9e,p73,<b><font size=6>Immunity to chickenpox is heritable.</font></b>,m,Genetics,Heritability,TRUE,FALSE,FALSE,TRUE,NA,NA,/Users/martincz/GitHub/COGS119/group_fa24_naive_theories/analysis/../data/raw_data/p1s0mtu3x9e_1732222121511.csv
NA,3337,html-keyboard-response,66,2.0.0,279954,p1s0mtu3x9e,p73,<b><font size=6>Viruses can change one's genome.</font></b>,z,Genetics,Mutation,FALSE,TRUE,TRUE,TRUE,NA,NA,/Users/martincz/GitHub/COGS119/group_fa24_naive_theories/analysis/../data/raw_data/p1s0mtu3x9e_1732222121511.csv
NA,2722,html-keyboard-response,67,2.0.0,283178,p1s0mtu3x9e,p73,<b><font size=6>Genes that code for eye color can be found in the liver.</font></b>,m,Genetics,Expression,FALSE,TRUE,TRUE,FALSE,NA,NA,/Users/martincz/GitHub/COGS119/group_fa24_naive_theories/analysis/../data/raw_data/p1s0mtu3x9e_1732222121511.csv
NA,NA,html-keyboard-response,68,2.0.0,285382,p1s0mtu3x9e,p73,<p><font-size=6>All the following statements are in category:</font></p><b><font size=10><font color=blue>Matter</font></b>,null,NA,NA,NA,NA,NA,NA,NA,NA,/Users/martincz/GitHub/COGS119/group_fa24_naive_theories/analysis/../data/raw_data/p1s0mtu3x9e_1732222121511.csv
NA,3474,html-keyboard-response,69,2.0.0,289358,p1s0mtu3x9e,p73,<b><font size=6>A grain of sand can be cut in half.</font></b>,z,Matter,Divisibility,FALSE,TRUE,TRUE,TRUE,NA,NA,/Users/martincz/GitHub/COGS119/group_fa24_naive_theories/analysis/../data/raw_data/p1s0mtu3x9e_1732222121511.csv
NA,2226,html-keyboard-response,70,2.0.0,292086,p1s0mtu3x9e,p73,<b><font size=6>Foam is denser than brick.</font></b>,m,Matter,Density,FALSE,FALSE,FALSE,TRUE,NA,NA,/Users/martincz/GitHub/COGS119/group_fa24_naive_theories/analysis/../data/raw_data/p1s0mtu3x9e_1732222121511.csv
NA,3825,html-keyboard-response,71,2.0.0,296413,p1s0mtu3x9e,p73,<b><font size=6>A cold penny is denser than a hot penny.</font></b>,z,Matter,Density,FALSE,TRUE,TRUE,TRUE,NA,NA,/Users/martincz/GitHub/COGS119/group_fa24_naive_theories/analysis/../data/raw_data/p1s0mtu3x9e_1732222121511.csv
NA,3769,html-keyboard-response,72,2.0.0,300684,p1s0mtu3x9e,p73,<b><font size=6>A liter of water weighs more than a liter of air.</font></b>,z,Matter,Weight,TRUE,TRUE,TRUE,TRUE,NA,NA,/Users/martincz/GitHub/COGS119/group_fa24_naive_theories/analysis/../data/raw_data/p1s0mtu3x9e_1732222121511.csv
NA,4165,html-keyboard-response,73,2.0.0,305352,p1s0mtu3x9e,p73,<b><font size=6>Atoms are mostly empty space.</font></b>,m,Matter,Atom,FALSE,TRUE,TRUE,FALSE,NA,NA,/Users/martincz/GitHub/COGS119/group_fa24_naive_theories/analysis/../data/raw_data/p1s0mtu3x9e_1732222121511.csv
NA,2032,html-keyboard-response,74,2.0.0,307886,p1s0mtu3x9e,p73,<b><font size=6>An idea can be cut in half.</font></b>,m,Matter,Divisibility,FALSE,FALSE,FALSE,TRUE,NA,NA,/Users/martincz/GitHub/COGS119/group_fa24_naive_theories/analysis/../data/raw_data/p1s0mtu3x9e_1732222121511.csv
NA,5034,html-keyboard-response,75,2.0.0,313421,p1s0mtu3x9e,p73,<b><font size=6>A pound of steel weighs more than a ton of steel.</font></b>,m,Matter,Weight,FALSE,FALSE,FALSE,TRUE,NA,NA,/Users/martincz/GitHub/COGS119/group_fa24_naive_theories/analysis/../data/raw_data/p1s0mtu3x9e_1732222121511.csv
NA,2446,html-keyboard-response,76,2.0.0,316370,p1s0mtu3x9e,p73,<b><font size=6>Ice is denser than water.</font></b>,z,Matter,Density,TRUE,FALSE,FALSE,FALSE,NA,NA,/Users/martincz/GitHub/COGS119/group_fa24_naive_theories/analysis/../data/raw_data/p1s0mtu3x9e_1732222121511.csv
NA,3583,html-keyboard-response,77,2.0.0,320456,p1s0mtu3x9e,p73,<b><font size=6>Air is composed of matter.</font></b>,z,Matter,Mass,FALSE,TRUE,TRUE,TRUE,NA,NA,/Users/martincz/GitHub/COGS119/group_fa24_naive_theories/analysis/../data/raw_data/p1s0mtu3x9e_1732222121511.csv
NA,1713,html-keyboard-response,78,2.0.0,322671,p1s0mtu3x9e,p73,<b><font size=6>Rocks are composed of matter.</font></b>,z,Matter,Mass,TRUE,TRUE,TRUE,TRUE,NA,NA,/Users/martincz/GitHub/COGS119/group_fa24_naive_theories/analysis/../data/raw_data/p1s0mtu3x9e_1732222121511.csv
NA,4486,html-keyboard-response,79,2.0.0,327658,p1s0mtu3x9e,p73,<b><font size=6>A pound of steel weighs more than a pound of feathers.</font></b>,z,Matter,Weight,TRUE,FALSE,FALSE,FALSE,NA,NA,/Users/martincz/GitHub/COGS119/group_fa24_naive_theories/analysis/../data/raw_data/p1s0mtu3x9e_1732222121511.csv
NA,4412,html-keyboard-response,80,2.0.0,332572,p1s0mtu3x9e,p73,<b><font size=6>A liter of water weighs more than a liter of ice.</font></b>,z,Matter,Weight,FALSE,TRUE,TRUE,TRUE,NA,NA,/Users/martincz/GitHub/COGS119/group_fa24_naive_theories/analysis/../data/raw_data/p1s0mtu3x9e_1732222121511.csv
NA,2637,html-keyboard-response,81,2.0.0,335712,p1s0mtu3x9e,p73,<b><font size=6>Fire is composed of matter.</font></b>,m,Matter,Mass,TRUE,FALSE,FALSE,TRUE,NA,NA,/Users/martincz/GitHub/COGS119/group_fa24_naive_theories/analysis/../data/raw_data/p1s0mtu3x9e_1732222121511.csv
NA,3090,html-keyboard-response,82,2.0.0,339304,p1s0mtu3x9e,p73,<b><font size=6>Steel is denser than foam.</font></b>,z,Matter,Density,TRUE,TRUE,TRUE,TRUE,NA,NA,/Users/martincz/GitHub/COGS119/group_fa24_naive_theories/analysis/../data/raw_data/p1s0mtu3x9e_1732222121511.csv
NA,3316,html-keyboard-response,83,2.0.0,343122,p1s0mtu3x9e,p73,<b><font size=6>Numbers are composed of matter.</font></b>,m,Matter,Mass,FALSE,FALSE,FALSE,TRUE,NA,NA,/Users/martincz/GitHub/COGS119/group_fa24_naive_theories/analysis/../data/raw_data/p1s0mtu3x9e_1732222121511.csv
NA,1394,html-keyboard-response,84,2.0.0,345019,p1s0mtu3x9e,p73,<b><font size=6>A shadow can be cut in half.</font></b>,m,Matter,Divisibility,TRUE,FALSE,FALSE,TRUE,NA,NA,/Users/martincz/GitHub/COGS119/group_fa24_naive_theories/analysis/../data/raw_data/p1s0mtu3x9e_1732222121511.csv
NA,1841,html-keyboard-response,85,2.0.0,347362,p1s0mtu3x9e,p73,<b><font size=6>Atoms are visible to the naked eye.</font></b>,m,Matter,Atom,FALSE,FALSE,FALSE,TRUE,NA,NA,/Users/martincz/GitHub/COGS119/group_fa24_naive_theories/analysis/../data/raw_data/p1s0mtu3x9e_1732222121511.csv
NA,2430,html-keyboard-response,86,2.0.0,350294,p1s0mtu3x9e,p73,<b><font size=6>A log can be cut in half.</font></b>,z,Matter,Divisibility,TRUE,TRUE,TRUE,TRUE,NA,NA,/Users/martincz/GitHub/COGS119/group_fa24_naive_theories/analysis/../data/raw_data/p1s0mtu3x9e_1732222121511.csv
NA,2671,html-keyboard-response,87,2.0.0,353466,p1s0mtu3x9e,p73,<b><font size=6>Atoms are the constituents of matter.</font></b>,z,Matter,Atom,TRUE,TRUE,TRUE,TRUE,NA,NA,/Users/martincz/GitHub/COGS119/group_fa24_naive_theories/analysis/../data/raw_data/p1s0mtu3x9e_1732222121511.csv
NA,2794,html-keyboard-response,88,2.0.0,356762,p1s0mtu3x9e,p73,<b><font size=6>Atoms are weightless.</font></b>,z,Matter,Atom,TRUE,FALSE,FALSE,FALSE,NA,NA,/Users/martincz/GitHub/COGS119/group_fa24_naive_theories/analysis/../data/raw_data/p1s0mtu3x9e_1732222121511.csv
NA,NA,html-keyboard-response,89,2.0.0,358966,p1s0mtu3x9e,p73,<p><font-size=6>All the following statements are in category:</font></p><b><font size=10><font color=blue>Physiology</font></b>,null,NA,NA,NA,NA,NA,NA,NA,NA,/Users/martincz/GitHub/COGS119/group_fa24_naive_theories/analysis/../data/raw_data/p1s0mtu3x9e_1732222121511.csv
NA,1214,html-keyboard-response,90,2.0.0,360683,p1s0mtu3x9e,p73,<b><font size=6>People turn food into energy.</font></b>,z,Physiology,Metabolism,TRUE,TRUE,TRUE,TRUE,NA,NA,/Users/martincz/GitHub/COGS119/group_fa24_naive_theories/analysis/../data/raw_data/p1s0mtu3x9e_1732222121511.csv
NA,877,html-keyboard-response,91,2.0.0,362062,p1s0mtu3x9e,p73,<b><font size=6>Fish are alive.</font></b>,z,Physiology,Life,TRUE,TRUE,TRUE,TRUE,NA,NA,/Users/martincz/GitHub/COGS119/group_fa24_naive_theories/analysis/../data/raw_data/p1s0mtu3x9e_1732222121511.csv
NA,751,html-keyboard-response,92,2.0.0,363315,p1s0mtu3x9e,p73,<b><font size=6>Coral is alive.</font></b>,z,Physiology,Life,FALSE,TRUE,TRUE,TRUE,NA,NA,/Users/martincz/GitHub/COGS119/group_fa24_naive_theories/analysis/../data/raw_data/p1s0mtu3x9e_1732222121511.csv
NA,1452,html-keyboard-response,93,2.0.0,365269,p1s0mtu3x9e,p73,<b><font size=6>Clouds can die.</font></b>,m,Physiology,Death,TRUE,FALSE,FALSE,TRUE,NA,NA,/Users/martincz/GitHub/COGS119/group_fa24_naive_theories/analysis/../data/raw_data/p1s0mtu3x9e_1732222121511.csv
NA,939,html-keyboard-response,94,2.0.0,366710,p1s0mtu3x9e,p73,<b><font size=6>Turtles can die.</font></b>,z,Physiology,Death,TRUE,TRUE,TRUE,TRUE,NA,NA,/Users/martincz/GitHub/COGS119/group_fa24_naive_theories/analysis/../data/raw_data/p1s0mtu3x9e_1732222121511.csv
NA,1981,html-keyboard-response,95,2.0.0,369193,p1s0mtu3x9e,p73,<b><font size=6>A baby can be identical to an older sibling.</font></b>,m,Physiology,Kinship,TRUE,FALSE,FALSE,TRUE,NA,NA,/Users/martincz/GitHub/COGS119/group_fa24_naive_theories/analysis/../data/raw_data/p1s0mtu3x9e_1732222121511.csv
NA,943,html-keyboard-response,96,2.0.0,370638,p1s0mtu3x9e,p73,<b><font size=6>Tigers can reproduce.</font></b>,z,Physiology,Reproduction,TRUE,TRUE,TRUE,TRUE,NA,NA,/Users/martincz/GitHub/COGS119/group_fa24_naive_theories/analysis/../data/raw_data/p1s0mtu3x9e_1732222121511.csv
NA,1944,html-keyboard-response,97,2.0.0,373084,p1s0mtu3x9e,p73,<b><font size=6>A baby can be a niece or a nephew.</font></b>,z,Physiology,Kinship,TRUE,TRUE,TRUE,TRUE,NA,NA,/Users/martincz/GitHub/COGS119/group_fa24_naive_theories/analysis/../data/raw_data/p1s0mtu3x9e_1732222121511.csv
NA,3123,html-keyboard-response,98,2.0.0,376709,p1s0mtu3x9e,p73,<b><font size=6>Plants turn food into energy.</font></b>,z,Physiology,Metabolism,TRUE,FALSE,FALSE,FALSE,NA,NA,/Users/martincz/GitHub/COGS119/group_fa24_naive_theories/analysis/../data/raw_data/p1s0mtu3x9e_1732222121511.csv
NA,3093,html-keyboard-response,99,2.0.0,380303,p1s0mtu3x9e,p73,<b><font size=6>Screwdrivers can die.</font></b>,m,Physiology,Death,FALSE,FALSE,FALSE,TRUE,NA,NA,/Users/martincz/GitHub/COGS119/group_fa24_naive_theories/analysis/../data/raw_data/p1s0mtu3x9e_1732222121511.csv
NA,1257,html-keyboard-response,100,2.0.0,382062,p1s0mtu3x9e,p73,<b><font size=6>Bacteria turn food into energy.</font></b>,z,Physiology,Metabolism,FALSE,TRUE,TRUE,TRUE,NA,NA,/Users/martincz/GitHub/COGS119/group_fa24_naive_theories/analysis/../data/raw_data/p1s0mtu3x9e_1732222121511.csv
NA,974,html-keyboard-response,101,2.0.0,383539,p1s0mtu3x9e,p73,<b><font size=6>The sun is alive.</font></b>,m,Physiology,Life,TRUE,FALSE,FALSE,TRUE,NA,NA,/Users/martincz/GitHub/COGS119/group_fa24_naive_theories/analysis/../data/raw_data/p1s0mtu3x9e_1732222121511.csv
NA,1436,html-keyboard-response,102,2.0.0,385477,p1s0mtu3x9e,p73,<b><font size=6>Rocks turn food into energy.</font></b>,m,Physiology,Metabolism,FALSE,FALSE,FALSE,TRUE,NA,NA,/Users/martincz/GitHub/COGS119/group_fa24_naive_theories/analysis/../data/raw_data/p1s0mtu3x9e_1732222121511.csv
NA,1829,html-keyboard-response,103,2.0.0,387807,p1s0mtu3x9e,p73,<b><font size=6>A baby can be a mother or a father.</font></b>,m,Physiology,Kinship,FALSE,FALSE,FALSE,TRUE,NA,NA,/Users/martincz/GitHub/COGS119/group_fa24_naive_theories/analysis/../data/raw_data/p1s0mtu3x9e_1732222121511.csv
NA,1526,html-keyboard-response,104,2.0.0,389835,p1s0mtu3x9e,p73,<b><font size=6>Ferns can reproduce.</font></b>,z,Physiology,Reproduction,FALSE,TRUE,TRUE,TRUE,NA,NA,/Users/martincz/GitHub/COGS119/group_fa24_naive_theories/analysis/../data/raw_data/p1s0mtu3x9e_1732222121511.csv
NA,1381,html-keyboard-response,105,2.0.0,391719,p1s0mtu3x9e,p73,<b><font size=6>Rocks are alive.</font></b>,m,Physiology,Life,FALSE,FALSE,FALSE,TRUE,NA,NA,/Users/martincz/GitHub/COGS119/group_fa24_naive_theories/analysis/../data/raw_data/p1s0mtu3x9e_1732222121511.csv
NA,1833,html-keyboard-response,106,2.0.0,394054,p1s0mtu3x9e,p73,<b><font size=6>A baby can be an uncle or an aunt.</font></b>,z,Physiology,Kinship,FALSE,TRUE,TRUE,TRUE,NA,NA,/Users/martincz/GitHub/COGS119/group_fa24_naive_theories/analysis/../data/raw_data/p1s0mtu3x9e_1732222121511.csv
NA,1068,html-keyboard-response,107,2.0.0,395624,p1s0mtu3x9e,p73,<b><font size=6>Chairs can reproduce.</font></b>,m,Physiology,Reproduction,FALSE,FALSE,FALSE,TRUE,NA,NA,/Users/martincz/GitHub/COGS119/group_fa24_naive_theories/analysis/../data/raw_data/p1s0mtu3x9e_1732222121511.csv
NA,1356,html-keyboard-response,108,2.0.0,397481,p1s0mtu3x9e,p73,<b><font size=6>Mushrooms can die.</font></b>,z,Physiology,Death,FALSE,TRUE,TRUE,TRUE,NA,NA,/Users/martincz/GitHub/COGS119/group_fa24_naive_theories/analysis/../data/raw_data/p1s0mtu3x9e_1732222121511.csv
NA,1830,html-keyboard-response,109,2.0.0,399813,p1s0mtu3x9e,p73,<b><font size=6>Caterpillars can reproduce.</font></b>,m,Physiology,Reproduction,TRUE,FALSE,FALSE,TRUE,NA,NA,/Users/martincz/GitHub/COGS119/group_fa24_naive_theories/analysis/../data/raw_data/p1s0mtu3x9e_1732222121511.csv
NA,36760,survey-text,110,2.0.0,437080,p1s0mtu3x9e,p73,NA,"{""reflection1"":""to see if a naive intuitive ideas persist after scientific knowledge is learned""}",NA,NA,NA,NA,NA,NA,to see if a naive intuitive ideas persist after scientific knowledge is learned,NA,/Users/martincz/GitHub/COGS119/group_fa24_naive_theories/analysis/../data/raw_data/p1s0mtu3x9e_1732222121511.csv
NA,3083,survey-text,111,2.0.0,440166,p1s0mtu3x9e,p73,NA,"{""reflection2"":""no""}",NA,NA,NA,NA,NA,NA,NA,no,/Users/martincz/GitHub/COGS119/group_fa24_naive_theories/analysis/../data/raw_data/p1s0mtu3x9e_1732222121511.csv
TRUE,19163,fullscreen,0,null,20174,p2dyqlx4dsa,camel,NA,NA,NA,NA,NA,NA,NA,NA,NA,NA,/Users/martincz/GitHub/COGS119/group_fa24_naive_theories/analysis/../data/raw_data/p2dyqlx4dsa_1732222865406.csv
NA,1990,html-keyboard-response,1,2.0.0,22167,p2dyqlx4dsa,camel,This trial will be in fullscreen mode. Press any key to begin.,Enter,NA,NA,NA,NA,NA,NA,NA,NA,/Users/martincz/GitHub/COGS119/group_fa24_naive_theories/analysis/../data/raw_data/p2dyqlx4dsa_1732222865406.csv
NA,1108,html-keyboard-response,2,2.0.0,23788,p2dyqlx4dsa,camel,Welcome to the experiment. Press any key to begin.,Enter,NA,NA,NA,NA,NA,NA,NA,NA,/Users/martincz/GitHub/COGS119/group_fa24_naive_theories/analysis/../data/raw_data/p2dyqlx4dsa_1732222865406.csv
NA,1771,survey-text,3,2.0.0,26080,p2dyqlx4dsa,camel,NA,"{""participant_id"":""camel""}",NA,NA,NA,NA,NA,NA,NA,NA,/Users/martincz/GitHub/COGS119/group_fa24_naive_theories/analysis/../data/raw_data/p2dyqlx4dsa_1732222865406.csv
NA,8178,html-keyboard-response,4,2.0.0,34762,p2dyqlx4dsa,camel,"<p>Welcome to the experiment!</p><p>In this task, you will see a series of scientific statements.</p><p>Your job is to decide whether each statement is true or false.</p><p>Press 'z' if you think the statement is true and 'm' if you think it is false.</p><p>Press any key to begin.</p>",Enter,NA,NA,NA,NA,NA,NA,NA,NA,/Users/martincz/GitHub/COGS119/group_fa24_naive_theories/analysis/../data/raw_data/p2dyqlx4dsa_1732222865406.csv
NA,NA,html-keyboard-response,5,2.0.0,36471,p2dyqlx4dsa,camel,<p><font-size=6>All the following statements are in category:</font></p><b><font size=10><font color=blue>Germs</font></b>,null,NA,NA,NA,NA,NA,NA,NA,NA,/Users/martincz/GitHub/COGS119/group_fa24_naive_theories/analysis/../data/raw_data/p2dyqlx4dsa_1732222865406.csv
NA,2306,html-keyboard-response,6,2.0.0,39290,p2dyqlx4dsa,camel,<b><font size=6>Being cold can make a person sick.</font></b>,z,Germs,Contagion,TRUE,FALSE,FALSE,FALSE,NA,NA,/Users/martincz/GitHub/COGS119/group_fa24_naive_theories/analysis/../data/raw_data/p2dyqlx4dsa_1732222865406.csv
NA,1681,html-keyboard-response,7,2.0.0,41473,p2dyqlx4dsa,camel,<b><font size=6>Kindness kills germs.</font></b>,m,Germs,Sterilization,FALSE,FALSE,FALSE,TRUE,NA,NA,/Users/martincz/GitHub/COGS119/group_fa24_naive_theories/analysis/../data/raw_data/p2dyqlx4dsa_1732222865406.csv
NA,1281,html-keyboard-response,8,2.0.0,43271,p2dyqlx4dsa,camel,<b><font size=6>Being sneezed on can make a person sick.</font></b>,z,Germs,Contagion,TRUE,TRUE,TRUE,TRUE,NA,NA,/Users/martincz/GitHub/COGS119/group_fa24_naive_theories/analysis/../data/raw_data/p2dyqlx4dsa_1732222865406.csv
NA,1222,html-keyboard-response,9,2.0.0,45005,p2dyqlx4dsa,camel,<b><font size=6>Germs have a shape.</font></b>,z,Germs,Microbe,TRUE,TRUE,TRUE,TRUE,NA,NA,/Users/martincz/GitHub/COGS119/group_fa24_naive_theories/analysis/../data/raw_data/p2dyqlx4dsa_1732222865406.csv
NA,1129,html-keyboard-response,10,2.0.0,46643,p2dyqlx4dsa,camel,<b><font size=6>Germs enter the body through cuts.</font></b>,z,Germs,Infection,TRUE,TRUE,TRUE,TRUE,NA,NA,/Users/martincz/GitHub/COGS119/group_fa24_naive_theories/analysis/../data/raw_data/p2dyqlx4dsa_1732222865406.csv
