"success","rt","trial_type","trial_index","plugin_version","time_elapsed","random_id","participant","stimulus","response","Category","Concept","T1","T2","CorrectAnswer","correct","reflection1","reflection2"
"true","1350","fullscreen","0","null","2360","pfq7dguu82a","dolphin","","","","","","","","","",""
"","786","html-keyboard-response","1","2.0.0","3150","pfq7dguu82a","dolphin","This trial will be in fullscreen mode. Press any key to begin.","v","","","","","","","",""
"","586","html-keyboard-response","2","2.0.0","4237","pfq7dguu82a","dolphin","Welcome to the experiment. Press any key to begin.","v","","","","","","","",""
"","2151","survey-text","3","2.0.0","6896","pfq7dguu82a","dolphin","","{""participant_id"":""dolphin""}","","","","","","","",""
"","2483","html-keyboard-response","4","2.0.0","9881","pfq7dguu82a","dolphin","<p>Welcome to the experiment!</p><p>In this task, you will see a series of scientific statements.</p><p>Your job is to decide whether each statement is true or false.</p><p>Press 'z' if you think the statement is true and 'm' if you think it is false.</p><p>Press any key to begin.</p>"," ","","","","","","","",""
"","null","html-keyboard-response","5","2.0.0","11585","pfq7dguu82a","dolphin","<p><font-size=6>All the following statements are in category:</font></p><b><font size=10><font color=blue>Waves</font></b>","null","","","","","","","",""
"","2286","html-keyboard-response","6","2.0.0","14374","pfq7dguu82a","dolphin","<b><font size=6>Sounds can be loud or quiet.</font></b>","z","Waves","Sound","T","T","T","true","",""
"","1232","html-keyboard-response","7","2.0.0","16108","pfq7dguu82a","dolphin","<b><font size=6>Sounds can be direct or reflected.</font></b>","z","Waves","Sound","F","T","T","true","",""
"","1580","html-keyboard-response","8","2.0.0","18190","pfq7dguu82a","dolphin","<b><font size=6>Shadows contain all colors of light.</font></b>","m","Waves","Light","F","F","F","true","",""
"","2370","html-keyboard-response","9","2.0.0","21063","pfq7dguu82a","dolphin","<b><font size=6>Red objects absorb blue light.</font></b>","z","Waves","Color","F","T","T","true","",""
"","1113","html-keyboard-response","10","2.0.0","22678","pfq7dguu82a","dolphin","<b><font size=6>Red objects reflect blue light.</font></b>","z","Waves","Color","F","F","F","false","",""
"","808","html-keyboard-response","11","2.0.0","23988","pfq7dguu82a","dolphin","<b><font size=6>Sounds can be dead or alive.</font></b>","m","Waves","Sound","F","F","F","true","",""
"","1502","html-keyboard-response","12","2.0.0","25992","pfq7dguu82a","dolphin","<b><font size=6>Red objects reflect red light.</font></b>","z","Waves","Color","T","T","T","true","",""
"","1300","html-keyboard-response","13","2.0.0","27794","pfq7dguu82a","dolphin","<b><font size=6>Sound travels through air.</font></b>","z","Waves","Propagation","T","T","T","true","",""
"","848","html-keyboard-response","14","2.0.0","29145","pfq7dguu82a","dolphin","<b><font size=6>Sounds can be near or far.</font></b>","z","Waves","Sound","T","F","F","false","",""
"","1588","html-keyboard-response","15","2.0.0","31235","pfq7dguu82a","dolphin","<b><font size=6>Rainbows contain all colors of light.</font></b>","z","Waves","Light","T","T","T","true","",""
"","1476","html-keyboard-response","16","2.0.0","33213","pfq7dguu82a","dolphin","<b><font size=6>Mirrors reflect light.</font></b>","z","Waves","Reflection","T","T","T","true","",""
"","1124","html-keyboard-response","17","2.0.0","34839","pfq7dguu82a","dolphin","<b><font size=6>Black objects reflect all colors of light.</font></b>","m","Waves","Light","T","F","F","true","",""
"","999","html-keyboard-response","18","2.0.0","36340","pfq7dguu82a","dolphin","<b><font size=6>Foam reflects sound.</font></b>","m","Waves","Reflection","F","F","F","true","",""
"","3930","html-keyboard-response","19","2.0.0","40772","pfq7dguu82a","dolphin","<b><font size=6>White light contains all colors of light.</font></b>","m","Waves","Light","F","T","T","false","",""
"","1466","html-keyboard-response","20","2.0.0","42739","pfq7dguu82a","dolphin","<b><font size=6>Sound travels through a vacuum.</font></b>","z","Waves","Propagation","T","F","F","false","",""
"","1000","html-keyboard-response","21","2.0.0","44241","pfq7dguu82a","dolphin","<b><font size=6>Mirrors reflect sound.</font></b>","m","Waves","Reflection","F","T","T","false","",""
"","979","html-keyboard-response","22","2.0.0","45722","pfq7dguu82a","dolphin","<b><font size=6>Sound travels through metal.</font></b>","m","Waves","Propagation","F","T","T","false","",""
"","2178","html-keyboard-response","23","2.0.0","48402","pfq7dguu82a","dolphin","<b><font size=6>Red objects absorb red light.</font></b>","z","Waves","Color","T","F","F","false","",""
"","1312","html-keyboard-response","24","2.0.0","50216","pfq7dguu82a","dolphin","<b><font size=6>Prisms reflect light.</font></b>","z","Waves","Reflection","T","F","F","false","",""
"","682","html-keyboard-response","25","2.0.0","51401","pfq7dguu82a","dolphin","<b><font size=6>Sound travels through foam.</font></b>","m","Waves","Propagation","F","F","F","true","",""
"","null","html-keyboard-response","26","2.0.0","53605","pfq7dguu82a","dolphin","<p><font-size=6>All the following statements are in category:</font></p><b><font size=10><font color=blue>Evolution</font></b>","null","","","","","","","",""
"","1144","html-keyboard-response","27","2.0.0","55252","pfq7dguu82a","dolphin","<b><font size=6>Evolution requires differential survival.</font></b>","z","Evolution","Variation","T","T","T","true","",""
"","1192","html-keyboard-response","28","2.0.0","56946","pfq7dguu82a","dolphin","<b><font size=6>Most organisms are adapted to their environment.</font></b>","z","Evolution","Selection","T","T","T","true","",""
"","738","html-keyboard-response","29","2.0.0","58186","pfq7dguu82a","dolphin","<b><font size=6>Biological species evolve.</font></b>","z","Evolution","Adaptation","T","T","T","true","",""
"","1516","html-keyboard-response","30","2.0.0","60205","pfq7dguu82a","dolphin","<b><font size=6>Humans are descended from chimpanzees.</font></b>","z","Evolution","Phylogeny","T","F","F","false","",""
"","879","html-keyboard-response","31","2.0.0","61585","pfq7dguu82a","dolphin","<b><font size=6>Individual organisms evolve.</font></b>","z","Evolution","Adaptation","T","F","F","false","",""
"","2460","html-keyboard-response","32","2.0.0","64546","pfq7dguu82a","dolphin","<b><font size=6>Most organisms live in temperate climates.</font></b>","z","Evolution","Selection","F","F","F","false","",""
"","1661","html-keyboard-response","33","2.0.0","66709","pfq7dguu82a","dolphin","<b><font size=6>Humans are descended from tree-dwelling creatures.</font></b>","z","Evolution","Phylogeny","T","T","T","true","",""
"","976","html-keyboard-response","34","2.0.0","68188","pfq7dguu82a","dolphin","<b><font size=6>Evolution requires climate stability.</font></b>","z","Evolution","Variation","F","F","F","false","",""
"","670","html-keyboard-response","35","2.0.0","69359","pfq7dguu82a","dolphin","<b><font size=6>Most organisms have plenty to eat.</font></b>","z","Evolution","Selection","T","F","F","false","",""
"","1015","html-keyboard-response","36","2.0.0","70876","pfq7dguu82a","dolphin","<b><font size=6>Humans are descended from sea-dwelling creatures.</font></b>","m","Evolution","Phylogeny","F","T","T","false","",""
"","3079","html-keyboard-response","37","2.0.0","74456","pfq7dguu82a","dolphin","<b><font size=6>Apes are more closely related to monkeys than humans.</font></b>","z","Evolution","Common ancestry","T","F","F","false","",""
"","2293","html-keyboard-response","38","2.0.0","77251","pfq7dguu82a","dolphin","<b><font size=6>Evolution requires within-species variation.</font></b>","z","Evolution","Variation","F","T","T","true","",""
"","897","html-keyboard-response","39","2.0.0","78650","pfq7dguu82a","dolphin","<b><font size=6>Evolution requires long periods of time.</font></b>","z","Evolution","Variation","T","F","F","false","",""
"","1037","html-keyboard-response","40","2.0.0","80189","pfq7dguu82a","dolphin","<b><font size=6>Computer viruses evolve.</font></b>","z","Evolution","Adaptation","F","T","T","true","",""
"","1498","html-keyboard-response","41","2.0.0","82188","pfq7dguu82a","dolphin","<b><font size=6>Most organisms die before leaving offspring.</font></b>","m","Evolution","Selection","F","T","T","false","",""
"","3319","html-keyboard-response","42","2.0.0","86009","pfq7dguu82a","dolphin","<b><font size=6>Humans are more closely related to apes than monkeys.</font></b>","z","Evolution","Common ancestry","T","T","T","true","",""
"","1185","html-keyboard-response","43","2.0.0","87696","pfq7dguu82a","dolphin","<b><font size=6>Humans are descended from plants.</font></b>","z","Evolution","Phylogeny","F","F","F","false","",""
"","3291","html-keyboard-response","44","2.0.0","91489","pfq7dguu82a","dolphin","<b><font size=6>Whales are more closely related to plants than fish.</font></b>","m","Evolution","Common ancestry","F","F","F","true","",""
"","1247","html-keyboard-response","45","2.0.0","93238","pfq7dguu82a","dolphin","<b><font size=6>Inanimate objects evolve.</font></b>","m","Evolution","Adaptation","F","F","F","true","",""
"","1823","html-keyboard-response","46","2.0.0","95562","pfq7dguu82a","dolphin","<b><font size=6>Whales are more closely related to humans than fish.</font></b>","m","Evolution","Common ancestry","F","T","T","false","",""
"","null","html-keyboard-response","47","2.0.0","97767","pfq7dguu82a","dolphin","<p><font-size=6>All the following statements are in category:</font></p><b><font size=10><font color=blue>Genetics</font></b>","null","","","","","","","",""
"","1627","html-keyboard-response","48","2.0.0","99896","pfq7dguu82a","dolphin","<b><font size=6>Hair color is heritable.</font></b>","z","Genetics","Heritability","T","T","T","true","",""
"","1083","html-keyboard-response","49","2.0.0","101481","pfq7dguu82a","dolphin","<b><font size=6>Genes that code for eye color can be found in tears.</font></b>","z","Genetics","Expression","T","F","F","false","",""
"","2483","html-keyboard-response","50","2.0.0","104466","pfq7dguu82a","dolphin","<b><font size=6>A blue-eyed baby must have two blue-eyed parents.</font></b>","m","Genetics","Dominance","T","F","F","true","",""
"","1654","html-keyboard-response","51","2.0.0","106621","pfq7dguu82a","dolphin","<b><font size=6>Genes that code for eye color can be found in the eye.</font></b>","z","Genetics","Expression","T","T","T","true","",""
"","1397","html-keyboard-response","52","2.0.0","108519","pfq7dguu82a","dolphin","<b><font size=6>Two brown-eyed parents could have a brown-eyed baby.</font></b>","z","Genetics","Dominance","T","T","T","true","",""
"","1400","html-keyboard-response","53","2.0.0","110422","pfq7dguu82a","dolphin","<b><font size=6>Humans have more chromosomes than mosquitoes.</font></b>","z","Genetics","Chromosome","T","T","T","true","",""
"","1587","html-keyboard-response","54","2.0.0","112511","pfq7dguu82a","dolphin","<b><font size=6>Immunity to chickenpox is heritable.</font></b>","m","Genetics","Heritability","T","F","F","true","",""
"","2358","html-keyboard-response","55","2.0.0","115370","pfq7dguu82a","dolphin","<b><font size=6>Genes that code for eye color can be found in the liver.</font></b>","z","Genetics","Expression","F","T","T","true","",""
"","624","html-keyboard-response","56","2.0.0","116496","pfq7dguu82a","dolphin","<b><font size=6>Intelligence is heritable.</font></b>","z","Genetics","Heritability","F","T","T","true","",""
"","1377","html-keyboard-response","57","2.0.0","118375","pfq7dguu82a","dolphin","<b><font size=6>Two brown-eyed parents could have a blue-eyed baby.</font></b>","z","Genetics","Dominance","F","T","T","true","",""
"","1619","html-keyboard-response","58","2.0.0","120496","pfq7dguu82a","dolphin","<b><font size=6>Genes that code for eye color can be found in hair.</font></b>","m","Genetics","Expression","F","F","F","true","",""
"","2376","html-keyboard-response","59","2.0.0","123375","pfq7dguu82a","dolphin","<b><font size=6>Skin cells have more chromosomes than egg cells.</font></b>","m","Genetics","Chromosome","F","T","T","false","",""
"","1691","html-keyboard-response","60","2.0.0","125569","pfq7dguu82a","dolphin","<b><font size=6>Exercise can change one's genome.</font></b>","m","Genetics","Mutation","T","F","F","true","",""
"","3336","html-keyboard-response","61","2.0.0","129406","pfq7dguu82a","dolphin","<b><font size=6>Men have more chromosomes than women.</font></b>","m","Genetics","Chromosome","F","F","F","true","",""
"","1074","html-keyboard-response","62","2.0.0","130983","pfq7dguu82a","dolphin","<b><font size=6>Pierced ears are heritable.</font></b>","m","Genetics","Heritability","F","F","F","true","",""
"","2767","html-keyboard-response","63","2.0.0","134252","pfq7dguu82a","dolphin","<b><font size=6>Adults have more chromosomes than children.</font></b>","z","Genetics","Chromosome","T","F","F","false","",""
"","3809","html-keyboard-response","64","2.0.0","138563","pfq7dguu82a","dolphin","<b><font size=6>Sunscreen can change one's genome.</font></b>","m","Genetics","Mutation","F","F","F","true","",""
"","1132","html-keyboard-response","65","2.0.0","140196","pfq7dguu82a","dolphin","<b><font size=6>Two blue-eyed parents could have a brown-eyed baby.</font></b>","z","Genetics","Dominance","F","F","F","false","",""
"","1109","html-keyboard-response","66","2.0.0","141806","pfq7dguu82a","dolphin","<b><font size=6>Radiation can change one's genome.</font></b>","z","Genetics","Mutation","T","T","T","true","",""
"","943","html-keyboard-response","67","2.0.0","143251","pfq7dguu82a","dolphin","<b><font size=6>Viruses can change one's genome.</font></b>","m","Genetics","Mutation","F","T","T","false","",""
"","null","html-keyboard-response","68","2.0.0","145455","pfq7dguu82a","dolphin","<p><font-size=6>All the following statements are in category:</font></p><b><font size=10><font color=blue>Mechanics</font></b>","null","","","","","","","",""
"","582","html-keyboard-response","69","2.0.0","146540","pfq7dguu82a","dolphin","<b><font size=6>Forces can be balanced or unbalanced.</font></b>","m","Mechanics","Force","F","T","T","false","",""
"","1095","html-keyboard-response","70","2.0.0","148137","pfq7dguu82a","dolphin","<b><font size=6>Forces can be straight or curved.</font></b>","z","Mechanics","Force","T","F","F","false","",""
"","2825","html-keyboard-response","71","2.0.0","151464","pfq7dguu82a","dolphin","<b><font size=6>Constant acceleration requires constant force.</font></b>","z","Mechanics","Acceleration","T","T","T","true","",""
"","1520","html-keyboard-response","72","2.0.0","153486","pfq7dguu82a","dolphin","<b><font size=6>Forces can be transferred from one object to another.</font></b>","z","Mechanics","Momentum","T","F","F","false","",""
"","998","html-keyboard-response","73","2.0.0","154987","pfq7dguu82a","dolphin","<b><font size=6>A moving bullet loses weight.</font></b>","z","Mechanics","Velocity","F","F","F","false","",""
"","2361","html-keyboard-response","74","2.0.0","157850","pfq7dguu82a","dolphin","<b><font size=6>Anvils fall through air faster than feathers.</font></b>","z","Mechanics","Gravity","T","T","T","true","",""
"","2458","html-keyboard-response","75","2.0.0","160810","pfq7dguu82a","dolphin","<b><font size=6>Constant force can yield constant rest.</font></b>","m","Mechanics","Acceleration","F","T","T","false","",""
"","740","html-keyboard-response","76","2.0.0","162052","pfq7dguu82a","dolphin","<b><font size=6>A moving bullet loses force.</font></b>","m","Mechanics","Velocity","T","F","F","true","",""
"","1557","html-keyboard-response","77","2.0.0","164110","pfq7dguu82a","dolphin","<b><font size=6>Heavy balls fall through air faster than light balls.</font></b>","z","Mechanics","Gravity","T","F","F","false","",""
"","2325","html-keyboard-response","78","2.0.0","166937","pfq7dguu82a","dolphin","<b><font size=6>Bright objects fall through air faster than dark objects.</font></b>","m","Mechanics","Gravity","F","F","F","true","",""
"","1399","html-keyboard-response","79","2.0.0","168838","pfq7dguu82a","dolphin","<b><font size=6>A moving bullet loses height.</font></b>","m","Mechanics","Velocity","F","T","T","false","",""
"","1579","html-keyboard-response","80","2.0.0","170919","pfq7dguu82a","dolphin","<b><font size=6>Momentum can be transferred from one object to another.</font></b>","z","Mechanics","Momentum","T","T","T","true","",""
"","909","html-keyboard-response","81","2.0.0","172330","pfq7dguu82a","dolphin","<b><font size=6>Forces can be male or female.</font></b>","m","Mechanics","Force","F","F","F","true","",""
"","1051","html-keyboard-response","82","2.0.0","173883","pfq7dguu82a","dolphin","<b><font size=6>Constant speed requires constant acceleration.</font></b>","z","Mechanics","Acceleration","F","F","F","false","",""
"","1210","html-keyboard-response","83","2.0.0","175594","pfq7dguu82a","dolphin","<b><font size=6>Constant motion requires constant force.</font></b>","z","Mechanics","Acceleration","T","F","F","false","",""
"","1721","html-keyboard-response","84","2.0.0","177816","pfq7dguu82a","dolphin","<b><font size=6>A moving bullet loses speed.</font></b>","z","Mechanics","Velocity","T","T","T","true","",""
"","2512","html-keyboard-response","85","2.0.0","180830","pfq7dguu82a","dolphin","<b><font size=6>Color can be transferred from one object to another.</font></b>","m","Mechanics","Momentum","F","F","F","true","",""
"","972","html-keyboard-response","86","2.0.0","182304","pfq7dguu82a","dolphin","<b><font size=6>Energy can be transferred from one object to another.</font></b>","z","Mechanics","Momentum","F","T","T","true","",""
"","1116","html-keyboard-response","87","2.0.0","183922","pfq7dguu82a","dolphin","<b><font size=6>Forces can be strong or weak.</font></b>","z","Mechanics","Force","T","T","T","true","",""
"","3014","html-keyboard-response","88","2.0.0","187438","pfq7dguu82a","dolphin","<b><font size=6>Pointy objects fall through air faster than flat objects.</font></b>","z","Mechanics","Gravity","F","T","T","true","",""
"","null","html-keyboard-response","89","2.0.0","189640","pfq7dguu82a","dolphin","<p><font-size=6>All the following statements are in category:</font></p><b><font size=10><font color=blue>Fractions</font></b>","null","","","","","","","",""
"","3572","html-keyboard-response","90","2.0.0","193715","pfq7dguu82a","dolphin","<b><font size=6>4 divided by 2/1 is 2.</font></b>","z","Fractions","Division","T","T","T","true","",""
"","1748","html-keyboard-response","91","2.0.0","195964","pfq7dguu82a","dolphin","<b><font size=6>2/3 plus 2/4 is 2/7.</font></b>","m","Fractions","Addition","T","F","F","true","",""
"","1641","html-keyboard-response","92","2.0.0","198107","pfq7dguu82a","dolphin","<b><font size=6>1/3 plus 1/3 is 1/3.</font></b>","m","Fractions","Addition","F","F","F","true","",""
"","3393","html-keyboard-response","93","2.0.0","202002","pfq7dguu82a","dolphin","<b><font size=6>There are numbers between 10 and 10.</font></b>","m","Fractions","Infinite density","F","F","F","true","",""
"","1872","html-keyboard-response","94","2.0.0","204376","pfq7dguu82a","dolphin","<b><font size=6>All fractions are expressible as decimals.</font></b>","z","Fractions","Conversion","T","F","F","false","",""
"","3177","html-keyboard-response","95","2.0.0","208055","pfq7dguu82a","dolphin","<b><font size=6>There are numbers between 1 and 3.</font></b>","z","Fractions","Infinite density","T","T","T","true","",""
"","903","html-keyboard-response","96","2.0.0","209459","pfq7dguu82a","dolphin","<b><font size=6>There are numbers between 1/3 and 1/2.</font></b>","z","Fractions","Infinite density","F","T","T","true","",""
"","1618","html-keyboard-response","97","2.0.0","211578","pfq7dguu82a","dolphin","<b><font size=6>All fractions are expressible as integers.</font></b>","m","Fractions","Conversion","F","F","F","true","",""
"","1643","html-keyboard-response","98","2.0.0","213724","pfq7dguu82a","dolphin","<b><font size=6>12/13 is greater than 1/13.</font></b>","z","Fractions","Ordering","T","T","T","true","",""
"","1231","html-keyboard-response","99","2.0.0","215457","pfq7dguu82a","dolphin","<b><font size=6>1/17 is greater than 16/17.</font></b>","m","Fractions","Ordering","F","F","F","true","",""
"","951","html-keyboard-response","100","2.0.0","216910","pfq7dguu82a","dolphin","<b><font size=6>1/3 plus 1/3 is 2/3.</font></b>","z","Fractions","Addition","T","T","T","true","",""
"","1986","html-keyboard-response","101","2.0.0","219397","pfq7dguu82a","dolphin","<b><font size=6>1/10 plus 1/10 is 1/5.</font></b>","z","Fractions","Addition","F","T","T","true","",""
"","3414","html-keyboard-response","102","2.0.0","223313","pfq7dguu82a","dolphin","<b><font size=6>4 divided by 1/2 is 8.</font></b>","z","Fractions","Division","F","T","T","true","",""
"","2745","html-keyboard-response","103","2.0.0","226559","pfq7dguu82a","dolphin","<b><font size=6>There are numbers between 1/10 and 10/100.</font></b>","m","Fractions","Infinite density","T","F","F","true","",""
"","2162","html-keyboard-response","104","2.0.0","229223","pfq7dguu82a","dolphin","<b><font size=6>1/17 is greater than 1/9.</font></b>","m","Fractions","Ordering","T","F","F","true","",""
"","2560","html-keyboard-response","105","2.0.0","232285","pfq7dguu82a","dolphin","<b><font size=6>8 divided by 1/2 is 4.</font></b>","m","Fractions","Division","T","F","F","true","",""
"","1607","html-keyboard-response","106","2.0.0","234395","pfq7dguu82a","dolphin","<b><font size=6>All integers are expressible as fractions.</font></b>","z","Fractions","Conversion","F","T","T","true","",""
"","2586","html-keyboard-response","107","2.0.0","237482","pfq7dguu82a","dolphin","<b><font size=6>8 divided by 2/1 is 3.</font></b>","m","Fractions","Division","F","F","F","true","",""
"","1915","html-keyboard-response","108","2.0.0","239899","pfq7dguu82a","dolphin","<b><font size=6>All decimals are expressible as fractions.</font></b>","z","Fractions","Conversion","T","T","T","true","",""
"","2460","html-keyboard-response","109","2.0.0","242860","pfq7dguu82a","dolphin","<b><font size=6>1/13 is greater than 1/30.</font></b>","z","Fractions","Ordering","F","T","T","true","",""
"","16177","survey-text","110","2.0.0","259540","pfq7dguu82a","dolphin","","{""reflection1"":""Something with sentence logic frames""}","","","","","","","Something with sentence logic frames",""
"","1689","survey-text","111","2.0.0","261232","pfq7dguu82a","dolphin","","{""reflection2"":""no""}","","","","","","","","no"
