"success","rt","trial_type","trial_index","plugin_version","time_elapsed","random_id","participant","stimulus","response","Category","Concept","T1","T2","CorrectAnswer","correct","reflection1","reflection2"
"true","1875","fullscreen","0","null","2909","pykwb0apwsj","p6","","","","","","","","","",""
"","1735","html-keyboard-response","1","2.0.0","4647","pykwb0apwsj","p6","This trial will be in fullscreen mode. Press any key to begin."," ","","","","","","","",""
"","908","html-keyboard-response","2","2.0.0","6057","pykwb0apwsj","p6","Welcome to the experiment. Press any key to begin."," ","","","","","","","",""
"","9230","survey-text","3","2.0.0","15791","pykwb0apwsj","p6","","{""participant_id"":""p6""}","","","","","","","",""
"","2496","html-keyboard-response","4","2.0.0","18790","pykwb0apwsj","p6","<p>Welcome to the experiment!</p><p>In this task, you will see a series of scientific statements.</p><p>Your job is to decide whether each statement is true or false.</p><p>Press 'z' if you think the statement is true and 'm' if you think it is false.</p><p>Press any key to begin.</p>"," ","","","","","","","",""
"","null","html-keyboard-response","5","2.0.0","20493","pykwb0apwsj","p6","<p><font-size=8>All the following statements are in category:</font></p><b><font size=10><font color=blue>Astronomy</font></b>","null","","","","","","","",""
"","20650","html-keyboard-response","6","2.0.0","41646","pykwb0apwsj","p6","<b><font size=6>Phases of the moon are caused by clouds.</font></b>","z","Astronomy","Lunar phase","F","F","F","false","",""
"","688","html-keyboard-response","7","2.0.0","42837","pykwb0apwsj","p6","<b><font size=6>Phases of the moon are caused by the earth's shadow.</font></b>","z","Astronomy","Lunar phase","T","F","F","false","",""
"","306","html-keyboard-response","8","2.0.0","43645","pykwb0apwsj","p6","<b><font size=6>Phases of the moon are caused by changes in illumination.</font></b>","m","Astronomy","Lunar phase","T","T","T","false","",""
"","242","html-keyboard-response","9","2.0.0","44389","pykwb0apwsj","p6","<b><font size=6>The moon revolves around the earth.</font></b>","z","Astronomy","Solar system","T","T","T","true","",""
"","218","html-keyboard-response","10","2.0.0","45109","pykwb0apwsj","p6","<b><font size=6>Asteroids are more massive than planets.</font></b>","m","Astronomy","Planet","F","F","F","true","",""
"","219","html-keyboard-response","11","2.0.0","45829","pykwb0apwsj","p6","<b><font size=6>The earth's rotation causes the seasons.</font></b>","z","Astronomy","Season","F","F","F","false","",""
"","282","html-keyboard-response","12","2.0.0","46613","pykwb0apwsj","p6","<b><font size=6>The earth's distance from the sun causes the seasons.</font></b>","m","Astronomy","Season","T","F","F","true","",""
"","186","html-keyboard-response","13","2.0.0","47301","pykwb0apwsj","p6","<b><font size=6>The sun revolves around the moon.</font></b>","z","Astronomy","Solar system","F","F","F","false","",""
"","234","html-keyboard-response","14","2.0.0","48036","pykwb0apwsj","p6","<b><font size=6>The earth's tilt causes the seasons.</font></b>","m","Astronomy","Season","F","T","T","false","",""
"","227","html-keyboard-response","15","2.0.0","48765","pykwb0apwsj","p6","<b><font size=6>The earth revolves around the sun.</font></b>","z","Astronomy","Solar system","F","T","T","true","",""
"","194","html-keyboard-response","16","2.0.0","49460","pykwb0apwsj","p6","<b><font size=6>Planets are more massive than stars.</font></b>","m","Astronomy","Planet","T","F","F","true","",""
"","235","html-keyboard-response","17","2.0.0","50197","pykwb0apwsj","p6","<b><font size=6>A change in overall sunlight causes the seasons.</font></b>","z","Astronomy","Season","T","T","T","true","",""
"","290","html-keyboard-response","18","2.0.0","50989","pykwb0apwsj","p6","<b><font size=6>The sun produces sound.</font></b>","m","Astronomy","Star","F","F","F","true","",""
"","370","html-keyboard-response","19","2.0.0","51861","pykwb0apwsj","p6","<b><font size=6>The sun produces gravity.</font></b>","z","Astronomy","Star","F","T","T","true","",""
"","306","html-keyboard-response","20","2.0.0","52668","pykwb0apwsj","p6","<b><font size=6>Stars are more massive than planets.</font></b>","m","Astronomy","Planet","F","T","T","false","",""
"","418","html-keyboard-response","21","2.0.0","53589","pykwb0apwsj","p6","<b><font size=6>The sun produces light.</font></b>","z","Astronomy","Star","T","T","T","true","",""
"","594","html-keyboard-response","22","2.0.0","54684","pykwb0apwsj","p6","<b><font size=6>Phases of the moon are caused by the moon's orbit.</font></b>","m","Astronomy","Lunar phase","F","T","T","false","",""
"","333","html-keyboard-response","23","2.0.0","55519","pykwb0apwsj","p6","<b><font size=6>The sun revolves around the earth.</font></b>","m","Astronomy","Solar system","T","F","F","true","",""
"","424","html-keyboard-response","24","2.0.0","56445","pykwb0apwsj","p6","<b><font size=6>The moon produces light.</font></b>","m","Astronomy","Star","T","F","F","true","",""
"","405","html-keyboard-response","25","2.0.0","57351","pykwb0apwsj","p6","<b><font size=6>Planets are more massive than moons.</font></b>","m","Astronomy","Planet","T","T","T","false","",""
"","null","html-keyboard-response","26","2.0.0","59555","pykwb0apwsj","p6","<p><font-size=8>All the following statements are in category:</font></p><b><font size=10><font color=blue>Matter</font></b>","null","","","","","","","",""
"","1644","html-keyboard-response","27","2.0.0","61700","pykwb0apwsj","p6","<b><font size=6>Fire is composed of matter.</font></b>","z","Matter","Mass","T","F","F","false","",""
"","289","html-keyboard-response","28","2.0.0","62492","pykwb0apwsj","p6","<b><font size=6>A cold penny is denser than a hot penny.</font></b>","m","Matter","Density","F","T","T","false","",""
"","380","html-keyboard-response","29","2.0.0","63373","pykwb0apwsj","p6","<b><font size=6>A pound of steel weighs more than a ton of steel.</font></b>","z","Matter","Weight","F","F","F","false","",""
"","345","html-keyboard-response","30","2.0.0","64220","pykwb0apwsj","p6","<b><font size=6>A log can be cut in half.</font></b>","m","Matter","Divisibility","T","T","T","false","",""
"","291","html-keyboard-response","31","2.0.0","65013","pykwb0apwsj","p6","<b><font size=6>An idea can be cut in half.</font></b>","z","Matter","Divisibility","F","F","F","false","",""
"","305","html-keyboard-response","32","2.0.0","65820","pykwb0apwsj","p6","<b><font size=6>Ice is denser than water.</font></b>","m","Matter","Density","T","F","F","true","",""
"","259","html-keyboard-response","33","2.0.0","66580","pykwb0apwsj","p6","<b><font size=6>Air is composed of matter.</font></b>","z","Matter","Mass","F","T","T","true","",""
"","362","html-keyboard-response","34","2.0.0","67444","pykwb0apwsj","p6","<b><font size=6>Rocks are composed of matter.</font></b>","m","Matter","Mass","T","T","T","false","",""
"","236","html-keyboard-response","35","2.0.0","68181","pykwb0apwsj","p6","<b><font size=6>Atoms are visible to the naked eye.</font></b>","z","Matter","Atom","F","F","F","false","",""
"","345","html-keyboard-response","36","2.0.0","69028","pykwb0apwsj","p6","<b><font size=6>Numbers are composed of matter.</font></b>","m","Matter","Mass","F","F","F","true","",""
"","227","html-keyboard-response","37","2.0.0","69756","pykwb0apwsj","p6","<b><font size=6>A liter of water weighs more than a liter of ice.</font></b>","z","Matter","Weight","F","T","T","true","",""
"","353","html-keyboard-response","38","2.0.0","70612","pykwb0apwsj","p6","<b><font size=6>Foam is denser than brick.</font></b>","m","Matter","Density","F","F","F","true","",""
"","267","html-keyboard-response","39","2.0.0","71380","pykwb0apwsj","p6","<b><font size=6>A shadow can be cut in half.</font></b>","z","Matter","Divisibility","T","F","F","false","",""
"","282","html-keyboard-response","40","2.0.0","72164","pykwb0apwsj","p6","<b><font size=6>Atoms are weightless.</font></b>","m","Matter","Atom","T","F","F","true","",""
"","315","html-keyboard-response","41","2.0.0","72980","pykwb0apwsj","p6","<b><font size=6>Atoms are mostly empty space.</font></b>","z","Matter","Atom","F","T","T","true","",""
"","322","html-keyboard-response","42","2.0.0","73805","pykwb0apwsj","p6","<b><font size=6>Steel is denser than foam.</font></b>","m","Matter","Density","T","T","T","false","",""
"","241","html-keyboard-response","43","2.0.0","74548","pykwb0apwsj","p6","<b><font size=6>Atoms are the constituents of matter.</font></b>","z","Matter","Atom","T","T","T","true","",""
"","362","html-keyboard-response","44","2.0.0","75412","pykwb0apwsj","p6","<b><font size=6>A liter of water weighs more than a liter of air.</font></b>","m","Matter","Weight","T","T","T","false","",""
"","266","html-keyboard-response","45","2.0.0","76181","pykwb0apwsj","p6","<b><font size=6>A pound of steel weighs more than a pound of feathers.</font></b>","z","Matter","Weight","T","F","F","false","",""
"","626","html-keyboard-response","46","2.0.0","77308","pykwb0apwsj","p6","<b><font size=6>A grain of sand can be cut in half.</font></b>","m","Matter","Divisibility","F","T","T","false","",""
"","298","html-keyboard-response","47","2.0.0","78108","pykwb0apwsj","p6","<p><font-size=8>All the following statements are in category:</font></p><b><font size=10><font color=blue>Genetics</font></b>","z","","","","","","","",""
"","458","html-keyboard-response","48","2.0.0","79068","pykwb0apwsj","p6","<b><font size=6>Adults have more chromosomes than children.</font></b>","m","Genetics","Chromosome","T","F","F","true","",""
"","258","html-keyboard-response","49","2.0.0","79828","pykwb0apwsj","p6","<b><font size=6>Humans have more chromosomes than mosquitoes.</font></b>","z","Genetics","Chromosome","T","T","T","true","",""
"","355","html-keyboard-response","50","2.0.0","80685","pykwb0apwsj","p6","<b><font size=6>Pierced ears are heritable.</font></b>","m","Genetics","Heritability","F","F","F","true","",""
"","266","html-keyboard-response","51","2.0.0","81452","pykwb0apwsj","p6","<b><font size=6>Two blue-eyed parents could have a brown-eyed baby.</font></b>","z","Genetics","Dominance","F","F","F","false","",""
"","411","html-keyboard-response","52","2.0.0","82364","pykwb0apwsj","p6","<b><font size=6>Viruses can change one's genome.</font></b>","m","Genetics","Mutation","F","T","T","false","",""
"","258","html-keyboard-response","53","2.0.0","83124","pykwb0apwsj","p6","<b><font size=6>Men have more chromosomes than women.</font></b>","z","Genetics","Chromosome","F","F","F","false","",""
"","299","html-keyboard-response","54","2.0.0","83924","pykwb0apwsj","p6","<b><font size=6>Genes that code for eye color can be found in the eye.</font></b>","m","Genetics","Expression","T","T","T","false","",""
"","218","html-keyboard-response","55","2.0.0","84644","pykwb0apwsj","p6","<b><font size=6>Exercise can change one's genome.</font></b>","z","Genetics","Mutation","T","F","F","false","",""
"","307","html-keyboard-response","56","2.0.0","85452","pykwb0apwsj","p6","<b><font size=6>Two brown-eyed parents could have a brown-eyed baby.</font></b>","m","Genetics","Dominance","T","T","T","false","",""
"","274","html-keyboard-response","57","2.0.0","86228","pykwb0apwsj","p6","<b><font size=6>Sunscreen can change one's genome.</font></b>","z","Genetics","Mutation","F","F","F","false","",""
"","331","html-keyboard-response","58","2.0.0","87060","pykwb0apwsj","p6","<b><font size=6>Genes that code for eye color can be found in tears.</font></b>","m","Genetics","Expression","T","F","F","true","",""
"","388","html-keyboard-response","59","2.0.0","87950","pykwb0apwsj","p6","<b><font size=6>A blue-eyed baby must have two blue-eyed parents.</font></b>","m","Genetics","Dominance","T","F","F","true","",""
"","280","html-keyboard-response","60","2.0.0","88732","pykwb0apwsj","p6","<b><font size=6>Skin cells have more chromosomes than egg cells.</font></b>","m","Genetics","Chromosome","F","T","T","false","",""
"","349","html-keyboard-response","61","2.0.0","89582","pykwb0apwsj","p6","<b><font size=6>Two brown-eyed parents could have a blue-eyed baby.</font></b>","m","Genetics","Dominance","F","T","T","false","",""
"","383","html-keyboard-response","62","2.0.0","90468","pykwb0apwsj","p6","<b><font size=6>Intelligence is heritable.</font></b>","m","Genetics","Heritability","F","T","T","false","",""
"","382","html-keyboard-response","63","2.0.0","91351","pykwb0apwsj","p6","<b><font size=6>Immunity to chickenpox is heritable.</font></b>","m","Genetics","Heritability","T","F","F","true","",""
"","287","html-keyboard-response","64","2.0.0","92140","pykwb0apwsj","p6","<b><font size=6>Hair color is heritable.</font></b>","z","Genetics","Heritability","T","T","T","true","",""
"","333","html-keyboard-response","65","2.0.0","92974","pykwb0apwsj","p6","<b><font size=6>Genes that code for eye color can be found in the liver.</font></b>","z","Genetics","Expression","F","T","T","true","",""
"","648","html-keyboard-response","66","2.0.0","94124","pykwb0apwsj","p6","<b><font size=6>Genes that code for eye color can be found in hair.</font></b>","m","Genetics","Expression","F","F","F","true","",""
"","313","html-keyboard-response","67","2.0.0","94939","pykwb0apwsj","p6","<b><font size=6>Radiation can change one's genome.</font></b>","z","Genetics","Mutation","T","T","T","true","",""
"","null","html-keyboard-response","68","2.0.0","97142","pykwb0apwsj","p6","<p><font-size=8>All the following statements are in category:</font></p><b><font size=10><font color=blue>Thermodynamics</font></b>","null","","","","","","","",""
"","384","html-keyboard-response","69","2.0.0","98028","pykwb0apwsj","p6","<b><font size=6>Gravity has heat.</font></b>","m","Thermodynamics","Heat","F","F","F","true","",""
"","265","html-keyboard-response","70","2.0.0","98795","pykwb0apwsj","p6","<b><font size=6>Steam has a lower temperature than ice.</font></b>","z","Thermodynamics","Temperature","F","F","F","false","",""
"","363","html-keyboard-response","71","2.0.0","99659","pykwb0apwsj","p6","<b><font size=6>Coats produce heat.</font></b>","m","Thermodynamics","Heat source","T","F","F","true","",""
"","305","html-keyboard-response","72","2.0.0","100467","pykwb0apwsj","p6","<b><font size=6>Boiling water has a lower temperature than steam.</font></b>","z","Thermodynamics","Temperature","F","T","T","true","",""
"","323","html-keyboard-response","73","2.0.0","101292","pykwb0apwsj","p6","<b><font size=6>Heat increases an object's weight.</font></b>","m","Thermodynamics","Thermal expansion","T","F","F","true","",""
"","266","html-keyboard-response","74","2.0.0","102059","pykwb0apwsj","p6","<b><font size=6>The sun has heat.</font></b>","z","Thermodynamics","Heat","T","T","T","true","",""
"","323","html-keyboard-response","75","2.0.0","102884","pykwb0apwsj","p6","<b><font size=6>Atoms have heat.</font></b>","m","Thermodynamics","Heat","T","F","F","true","",""
"","258","html-keyboard-response","76","2.0.0","103643","pykwb0apwsj","p6","<b><font size=6>Ice has heat.</font></b>","z","Thermodynamics","Heat","F","T","T","true","",""
"","267","html-keyboard-response","77","2.0.0","104411","pykwb0apwsj","p6","<b><font size=6>Cold objects transfer heat to warm objects.</font></b>","m","Thermodynamics","Heat transfer","F","F","F","true","",""
"","321","html-keyboard-response","78","2.0.0","105235","pykwb0apwsj","p6","<b><font size=6>Cold objects transfer heat to even colder objects.</font></b>","z","Thermodynamics","Heat transfer","F","T","T","true","",""
"","300","html-keyboard-response","79","2.0.0","106037","pykwb0apwsj","p6","<b><font size=6>Ovens produce heat.</font></b>","m","Thermodynamics","Heat source","T","T","T","false","",""
"","304","html-keyboard-response","80","2.0.0","106843","pykwb0apwsj","p6","<b><font size=6>Water transfers heat to ice.</font></b>","z","Thermodynamics","Heat transfer","T","T","T","true","",""
"","370","html-keyboard-response","81","2.0.0","107715","pykwb0apwsj","p6","<b><font size=6>Ice has a lower temperature than water.</font></b>","m","Thermodynamics","Temperature","T","T","T","false","",""
"","266","html-keyboard-response","82","2.0.0","108483","pykwb0apwsj","p6","<b><font size=6>Heat increases an object's color.</font></b>","z","Thermodynamics","Thermal expansion","F","F","F","false","",""
"","306","html-keyboard-response","83","2.0.0","109291","pykwb0apwsj","p6","<b><font size=6>Heat increases an object's temperature.</font></b>","m","Thermodynamics","Thermal expansion","T","T","T","false","",""
"","282","html-keyboard-response","84","2.0.0","110075","pykwb0apwsj","p6","<b><font size=6>Pressure produces heat.</font></b>","z","Thermodynamics","Heat source","F","T","T","true","",""
"","314","html-keyboard-response","85","2.0.0","110891","pykwb0apwsj","p6","<b><font size=6>Water transfers heat to steam.</font></b>","m","Thermodynamics","Heat transfer","T","F","F","true","",""
"","289","html-keyboard-response","86","2.0.0","111683","pykwb0apwsj","p6","<b><font size=6>Heat increases an object's size.</font></b>","z","Thermodynamics","Thermal expansion","F","T","T","true","",""
"","227","html-keyboard-response","87","2.0.0","112412","pykwb0apwsj","p6","<b><font size=6>Two cups of ice have a lower temperature than one.</font></b>","m","Thermodynamics","Temperature","T","F","F","true","",""
"","259","html-keyboard-response","88","2.0.0","113171","pykwb0apwsj","p6","<b><font size=6>Rain produces heat.</font></b>","z","Thermodynamics","Heat source","F","F","F","false","",""
"","null","html-keyboard-response","89","2.0.0","115375","pykwb0apwsj","p6","<p><font-size=8>All the following statements are in category:</font></p><b><font size=10><font color=blue>Fractions</font></b>","null","","","","","","","",""
"","406","html-keyboard-response","90","2.0.0","116283","pykwb0apwsj","p6","<b><font size=6>8 divided by 2/1 is 3.</font></b>","m","Fractions","Division","F","F","F","true","",""
"","297","html-keyboard-response","91","2.0.0","117083","pykwb0apwsj","p6","<b><font size=6>All fractions are expressible as integers.</font></b>","m","Fractions","Conversion","F","F","F","true","",""
"","17","html-keyboard-response","92","2.0.0","117602","pykwb0apwsj","p6","<b><font size=6>2/3 plus 2/4 is 2/7.</font></b>","m","Fractions","Addition","T","F","F","true","",""
"","107","html-keyboard-response","93","2.0.0","118211","pykwb0apwsj","p6","<b><font size=6>4 divided by 2/1 is 2.</font></b>","m","Fractions","Division","T","T","T","false","",""
"","33","html-keyboard-response","94","2.0.0","118747","pykwb0apwsj","p6","<b><font size=6>There are numbers between 1 and 3.</font></b>","m","Fractions","Infinite density","T","T","T","false","",""
"","74","html-keyboard-response","95","2.0.0","119323","pykwb0apwsj","p6","<b><font size=6>8 divided by 1/2 is 4.</font></b>","m","Fractions","Division","T","F","F","true","",""
"","74","html-keyboard-response","96","2.0.0","119899","pykwb0apwsj","p6","<b><font size=6>1/3 plus 1/3 is 1/3.</font></b>","m","Fractions","Addition","F","F","F","true","",""
"","345","html-keyboard-response","97","2.0.0","120747","pykwb0apwsj","p6","<b><font size=6>1/17 is greater than 16/17.</font></b>","m","Fractions","Ordering","F","F","F","true","",""
"","82","html-keyboard-response","98","2.0.0","121331","pykwb0apwsj","p6","<b><font size=6>1/17 is greater than 1/9.</font></b>","z","Fractions","Ordering","T","F","F","false","",""
"","139","html-keyboard-response","99","2.0.0","121971","pykwb0apwsj","p6","<b><font size=6>There are numbers between 10 and 10.</font></b>","m","Fractions","Infinite density","F","F","F","true","",""
"","331","html-keyboard-response","100","2.0.0","122803","pykwb0apwsj","p6","<b><font size=6>All integers are expressible as fractions.</font></b>","z","Fractions","Conversion","F","T","T","true","",""
"","213","html-keyboard-response","101","2.0.0","123518","pykwb0apwsj","p6","<b><font size=6>1/3 plus 1/3 is 2/3.</font></b>","z","Fractions","Addition","T","T","T","true","",""
"","135","html-keyboard-response","102","2.0.0","124155","pykwb0apwsj","p6","<b><font size=6>All decimals are expressible as fractions.</font></b>","m","Fractions","Conversion","T","T","T","false","",""
"","282","html-keyboard-response","103","2.0.0","124939","pykwb0apwsj","p6","<b><font size=6>4 divided by 1/2 is 8.</font></b>","z","Fractions","Division","F","T","T","true","",""
"","353","html-keyboard-response","104","2.0.0","125795","pykwb0apwsj","p6","<b><font size=6>1/10 plus 1/10 is 1/5.</font></b>","m","Fractions","Addition","F","T","T","false","",""
"","220","html-keyboard-response","105","2.0.0","126515","pykwb0apwsj","p6","<b><font size=6>There are numbers between 1/10 and 10/100.</font></b>","z","Fractions","Infinite density","T","F","F","false","",""
"","299","html-keyboard-response","106","2.0.0","127314","pykwb0apwsj","p6","<b><font size=6>All fractions are expressible as decimals.</font></b>","m","Fractions","Conversion","T","F","F","true","",""
"","179","html-keyboard-response","107","2.0.0","127995","pykwb0apwsj","p6","<b><font size=6>1/13 is greater than 1/30.</font></b>","z","Fractions","Ordering","F","T","T","true","",""
"","362","html-keyboard-response","108","2.0.0","128859","pykwb0apwsj","p6","<b><font size=6>12/13 is greater than 1/13.</font></b>","m","Fractions","Ordering","T","T","T","false","",""
"","483","html-keyboard-response","109","2.0.0","129843","pykwb0apwsj","p6","<b><font size=6>There are numbers between 1/3 and 1/2.</font></b>","z","Fractions","Infinite density","F","T","T","true","",""
"","6771","survey-text","110","2.0.0","137117","pykwb0apwsj","p6","","{""reflection1"":""""}","","","","","","","",""
"","2079","survey-text","111","2.0.0","139199","pykwb0apwsj","p6","","{""reflection2"":""""}","","","","","","","",""
