"success","rt","trial_type","trial_index","plugin_version","time_elapsed","random_id","participant","stimulus","response","Category","Concept","T1","T2","CorrectAnswer","correct","reflection1","reflection2"
"true","1678","fullscreen","0","null","2685","pz0xaadcw6s","panda","","","","","","","","","",""
"","1551","html-keyboard-response","1","2.0.0","4238","pz0xaadcw6s","panda","This trial will be in fullscreen mode. Press any key to begin.","Enter","","","","","","","",""
"","752","html-keyboard-response","2","2.0.0","5492","pz0xaadcw6s","panda","Welcome to the experiment. Press any key to begin.","Enter","","","","","","","",""
"","22597","survey-text","3","2.0.0","28608","pz0xaadcw6s","panda","","{""participant_id"":""panda""}","","","","","","","",""
"","9711","html-keyboard-response","4","2.0.0","38823","pz0xaadcw6s","panda","<p>Welcome to the experiment!</p><p>In this task, you will see a series of scientific statements.</p><p>Your job is to decide whether each statement is true or false.</p><p>Press 'z' if you think the statement is true and 'm' if you think it is false.</p><p>Press any key to begin.</p>","Enter","","","","","","","",""
"","null","html-keyboard-response","5","2.0.0","40527","pz0xaadcw6s","panda","<p><font-size=6>All the following statements are in category:</font></p><b><font size=10><font color=blue>Evolution</font></b>","null","","","","","","","",""
"","5386","html-keyboard-response","6","2.0.0","46417","pz0xaadcw6s","panda","<b><font size=6>Most organisms live in temperate climates.</font></b>","m","Evolution","Selection","F","F","F","true","",""
"","21751","html-keyboard-response","7","2.0.0","68672","pz0xaadcw6s","panda","<b><font size=6>Humans are descended from plants.</font></b>","m","Evolution","Phylogeny","F","F","F","true","",""
"","13104","html-keyboard-response","8","2.0.0","82280","pz0xaadcw6s","panda","<b><font size=6>Whales are more closely related to humans than fish.</font></b>","m","Evolution","Common ancestry","F","T","T","false","",""
"","6244","html-keyboard-response","9","2.0.0","89026","pz0xaadcw6s","panda","<b><font size=6>Most organisms die before leaving offspring.</font></b>","z","Evolution","Selection","F","T","T","true","",""
"","3903","html-keyboard-response","10","2.0.0","93433","pz0xaadcw6s","panda","<b><font size=6>Humans are more closely related to apes than monkeys.</font></b>","z","Evolution","Common ancestry","T","T","T","true","",""
"","3701","html-keyboard-response","11","2.0.0","97638","pz0xaadcw6s","panda","<b><font size=6>Humans are descended from chimpanzees.</font></b>","z","Evolution","Phylogeny","T","F","F","false","",""
"","4704","html-keyboard-response","12","2.0.0","102846","pz0xaadcw6s","panda","<b><font size=6>Humans are descended from tree-dwelling creatures.</font></b>","z","Evolution","Phylogeny","T","T","T","true","",""
"","8041","html-keyboard-response","13","2.0.0","111392","pz0xaadcw6s","panda","<b><font size=6>Inanimate objects evolve.</font></b>","z","Evolution","Adaptation","F","F","F","false","",""
"","7234","html-keyboard-response","14","2.0.0","119130","pz0xaadcw6s","panda","<b><font size=6>Most organisms have plenty to eat.</font></b>","m","Evolution","Selection","T","F","F","true","",""
"","3912","html-keyboard-response","15","2.0.0","123546","pz0xaadcw6s","panda","<b><font size=6>Evolution requires climate stability.</font></b>","m","Evolution","Variation","F","F","F","true","",""
"","3867","html-keyboard-response","16","2.0.0","127917","pz0xaadcw6s","panda","<b><font size=6>Apes are more closely related to monkeys than humans.</font></b>","m","Evolution","Common ancestry","T","F","F","true","",""
"","5029","html-keyboard-response","17","2.0.0","133452","pz0xaadcw6s","panda","<b><font size=6>Evolution requires long periods of time.</font></b>","z","Evolution","Variation","T","F","F","false","",""
"","3631","html-keyboard-response","18","2.0.0","137586","pz0xaadcw6s","panda","<b><font size=6>Evolution requires within-species variation.</font></b>","z","Evolution","Variation","F","T","T","true","",""
"","2546","html-keyboard-response","19","2.0.0","140637","pz0xaadcw6s","panda","<b><font size=6>Evolution requires differential survival.</font></b>","z","Evolution","Variation","T","T","T","true","",""
"","4190","html-keyboard-response","20","2.0.0","145331","pz0xaadcw6s","panda","<b><font size=6>Most organisms are adapted to their environment.</font></b>","z","Evolution","Selection","T","T","T","true","",""
"","3907","html-keyboard-response","21","2.0.0","149741","pz0xaadcw6s","panda","<b><font size=6>Individual organisms evolve.</font></b>","m","Evolution","Adaptation","T","F","F","true","",""
"","3671","html-keyboard-response","22","2.0.0","153915","pz0xaadcw6s","panda","<b><font size=6>Humans are descended from sea-dwelling creatures.</font></b>","z","Evolution","Phylogeny","F","T","T","true","",""
"","1766","html-keyboard-response","23","2.0.0","156187","pz0xaadcw6s","panda","<b><font size=6>Biological species evolve.</font></b>","z","Evolution","Adaptation","T","T","T","true","",""
"","4811","html-keyboard-response","24","2.0.0","161501","pz0xaadcw6s","panda","<b><font size=6>Whales are more closely related to plants than fish.</font></b>","m","Evolution","Common ancestry","F","F","F","true","",""
"","5663","html-keyboard-response","25","2.0.0","167667","pz0xaadcw6s","panda","<b><font size=6>Computer viruses evolve.</font></b>","z","Evolution","Adaptation","F","T","T","true","",""
"","null","html-keyboard-response","26","2.0.0","169871","pz0xaadcw6s","panda","<p><font-size=6>All the following statements are in category:</font></p><b><font size=10><font color=blue>Waves</font></b>","null","","","","","","","",""
"","6664","html-keyboard-response","27","2.0.0","177039","pz0xaadcw6s","panda","<b><font size=6>Black objects reflect all colors of light.</font></b>","m","Waves","Light","T","F","F","true","",""
"","4299","html-keyboard-response","28","2.0.0","181840","pz0xaadcw6s","panda","<b><font size=6>Sounds can be direct or reflected.</font></b>","z","Waves","Sound","F","T","T","true","",""
"","2628","html-keyboard-response","29","2.0.0","184972","pz0xaadcw6s","panda","<b><font size=6>Red objects reflect blue light.</font></b>","z","Waves","Color","F","F","F","false","",""
"","3617","html-keyboard-response","30","2.0.0","189092","pz0xaadcw6s","panda","<b><font size=6>Foam reflects sound.</font></b>","z","Waves","Reflection","F","F","F","false","",""
"","2349","html-keyboard-response","31","2.0.0","191944","pz0xaadcw6s","panda","<b><font size=6>Mirrors reflect sound.</font></b>","z","Waves","Reflection","F","T","T","true","",""
"","7638","html-keyboard-response","32","2.0.0","200085","pz0xaadcw6s","panda","<b><font size=6>Sound travels through metal.</font></b>","z","Waves","Propagation","F","T","T","true","",""
"","2069","html-keyboard-response","33","2.0.0","202658","pz0xaadcw6s","panda","<b><font size=6>White light contains all colors of light.</font></b>","z","Waves","Light","F","T","T","true","",""
"","2019","html-keyboard-response","34","2.0.0","205180","pz0xaadcw6s","panda","<b><font size=6>Sound travels through foam.</font></b>","m","Waves","Propagation","F","F","F","true","",""
"","3272","html-keyboard-response","35","2.0.0","208957","pz0xaadcw6s","panda","<b><font size=6>Prisms reflect light.</font></b>","z","Waves","Reflection","T","F","F","false","",""
"","2707","html-keyboard-response","36","2.0.0","212166","pz0xaadcw6s","panda","<b><font size=6>Red objects absorb red light.</font></b>","m","Waves","Color","T","F","F","true","",""
"","4454","html-keyboard-response","37","2.0.0","217123","pz0xaadcw6s","panda","<b><font size=6>Sound travels through a vacuum.</font></b>","z","Waves","Propagation","T","F","F","false","",""
"","4375","html-keyboard-response","38","2.0.0","222002","pz0xaadcw6s","panda","<b><font size=6>Shadows contain all colors of light.</font></b>","m","Waves","Light","F","F","F","true","",""
"","10354","html-keyboard-response","39","2.0.0","232860","pz0xaadcw6s","panda","<b><font size=6>Mirrors reflect light.</font></b>","z","Waves","Reflection","T","T","T","true","",""
"","2104","html-keyboard-response","40","2.0.0","235469","pz0xaadcw6s","panda","<b><font size=6>Red objects absorb blue light.</font></b>","z","Waves","Color","F","T","T","true","",""
"","4748","html-keyboard-response","41","2.0.0","240721","pz0xaadcw6s","panda","<b><font size=6>Sounds can be near or far.</font></b>","z","Waves","Sound","T","F","F","false","",""
"","2174","html-keyboard-response","42","2.0.0","243398","pz0xaadcw6s","panda","<b><font size=6>Sounds can be dead or alive.</font></b>","m","Waves","Sound","F","F","F","true","",""
"","1406","html-keyboard-response","43","2.0.0","245308","pz0xaadcw6s","panda","<b><font size=6>Rainbows contain all colors of light.</font></b>","z","Waves","Light","T","T","T","true","",""
"","3177","html-keyboard-response","44","2.0.0","248987","pz0xaadcw6s","panda","<b><font size=6>Sound travels through air.</font></b>","z","Waves","Propagation","T","T","T","true","",""
"","2312","html-keyboard-response","45","2.0.0","251803","pz0xaadcw6s","panda","<b><font size=6>Red objects reflect red light.</font></b>","m","Waves","Color","T","T","T","false","",""
"","2929","html-keyboard-response","46","2.0.0","255235","pz0xaadcw6s","panda","<b><font size=6>Sounds can be loud or quiet.</font></b>","z","Waves","Sound","T","T","T","true","",""
"","null","html-keyboard-response","47","2.0.0","257440","pz0xaadcw6s","panda","<p><font-size=6>All the following statements are in category:</font></p><b><font size=10><font color=blue>Astronomy</font></b>","null","","","","","","","",""
"","4279","html-keyboard-response","48","2.0.0","262222","pz0xaadcw6s","panda","<b><font size=6>Asteroids are more massive than planets.</font></b>","z","Astronomy","Planet","F","F","F","false","",""
"","1661","html-keyboard-response","49","2.0.0","264385","pz0xaadcw6s","panda","<b><font size=6>The sun revolves around the moon.</font></b>","m","Astronomy","Solar system","F","F","F","true","",""
"","1807","html-keyboard-response","50","2.0.0","266696","pz0xaadcw6s","panda","<b><font size=6>Phases of the moon are caused by changes in illumination.</font></b>","z","Astronomy","Lunar phase","T","T","T","true","",""
"","2974","html-keyboard-response","51","2.0.0","270174","pz0xaadcw6s","panda","<b><font size=6>Stars are more massive than planets.</font></b>","m","Astronomy","Planet","F","T","T","false","",""
"","2463","html-keyboard-response","52","2.0.0","273141","pz0xaadcw6s","panda","<b><font size=6>The earth revolves around the sun.</font></b>","m","Astronomy","Solar system","F","T","T","false","",""
"","3171","html-keyboard-response","53","2.0.0","276815","pz0xaadcw6s","panda","<b><font size=6>The sun produces gravity.</font></b>","m","Astronomy","Star","F","T","T","false","",""
"","2682","html-keyboard-response","54","2.0.0","279999","pz0xaadcw6s","panda","<b><font size=6>The sun produces sound.</font></b>","z","Astronomy","Star","F","F","F","false","",""
"","1893","html-keyboard-response","55","2.0.0","282393","pz0xaadcw6s","panda","<b><font size=6>The sun revolves around the earth.</font></b>","m","Astronomy","Solar system","T","F","F","true","",""
"","2531","html-keyboard-response","56","2.0.0","285427","pz0xaadcw6s","panda","<b><font size=6>A change in overall sunlight causes the seasons.</font></b>","z","Astronomy","Season","T","T","T","true","",""
"","2486","html-keyboard-response","57","2.0.0","288415","pz0xaadcw6s","panda","<b><font size=6>The earth's tilt causes the seasons.</font></b>","z","Astronomy","Season","F","T","T","true","",""
"","2581","html-keyboard-response","58","2.0.0","291500","pz0xaadcw6s","panda","<b><font size=6>The sun produces light.</font></b>","m","Astronomy","Star","T","T","T","false","",""
"","2672","html-keyboard-response","59","2.0.0","294675","pz0xaadcw6s","panda","<b><font size=6>Phases of the moon are caused by clouds.</font></b>","z","Astronomy","Lunar phase","F","F","F","false","",""
"","2777","html-keyboard-response","60","2.0.0","297955","pz0xaadcw6s","panda","<b><font size=6>The moon revolves around the earth.</font></b>","m","Astronomy","Solar system","T","T","T","false","",""
"","2971","html-keyboard-response","61","2.0.0","301428","pz0xaadcw6s","panda","<b><font size=6>Planets are more massive than stars.</font></b>","z","Astronomy","Planet","T","F","F","false","",""
"","2529","html-keyboard-response","62","2.0.0","304460","pz0xaadcw6s","panda","<b><font size=6>Planets are more massive than moons.</font></b>","z","Astronomy","Planet","T","T","T","true","",""
"","4262","html-keyboard-response","63","2.0.0","309224","pz0xaadcw6s","panda","<b><font size=6>Phases of the moon are caused by the earth's shadow.</font></b>","z","Astronomy","Lunar phase","T","F","F","false","",""
"","5081","html-keyboard-response","64","2.0.0","314809","pz0xaadcw6s","panda","<b><font size=6>The earth's rotation causes the seasons.</font></b>","z","Astronomy","Season","F","F","F","false","",""
"","2144","html-keyboard-response","65","2.0.0","317456","pz0xaadcw6s","panda","<b><font size=6>The moon produces light.</font></b>","m","Astronomy","Star","T","F","F","true","",""
"","5360","html-keyboard-response","66","2.0.0","323319","pz0xaadcw6s","panda","<b><font size=6>Phases of the moon are caused by the moon's orbit.</font></b>","m","Astronomy","Lunar phase","F","T","T","false","",""
"","4446","html-keyboard-response","67","2.0.0","328269","pz0xaadcw6s","panda","<b><font size=6>The earth's distance from the sun causes the seasons.</font></b>","m","Astronomy","Season","T","F","F","true","",""
"","null","html-keyboard-response","68","2.0.0","330474","pz0xaadcw6s","panda","<p><font-size=6>All the following statements are in category:</font></p><b><font size=10><font color=blue>Matter</font></b>","null","","","","","","","",""
"","1638","html-keyboard-response","69","2.0.0","332615","pz0xaadcw6s","panda","<b><font size=6>A liter of water weighs more than a liter of ice.</font></b>","z","Matter","Weight","F","T","T","true","",""
"","1409","html-keyboard-response","70","2.0.0","334527","pz0xaadcw6s","panda","<b><font size=6>Atoms are weightless.</font></b>","z","Matter","Atom","T","F","F","false","",""
"","3473","html-keyboard-response","71","2.0.0","338504","pz0xaadcw6s","panda","<b><font size=6>An idea can be cut in half.</font></b>","z","Matter","Divisibility","F","F","F","false","",""
"","2420","html-keyboard-response","72","2.0.0","341428","pz0xaadcw6s","panda","<b><font size=6>A shadow can be cut in half.</font></b>","m","Matter","Divisibility","T","F","F","true","",""
"","1896","html-keyboard-response","73","2.0.0","343829","pz0xaadcw6s","panda","<b><font size=6>A log can be cut in half.</font></b>","z","Matter","Divisibility","T","T","T","true","",""
"","3142","html-keyboard-response","74","2.0.0","347475","pz0xaadcw6s","panda","<b><font size=6>Ice is denser than water.</font></b>","m","Matter","Density","T","F","F","true","",""
"","3428","html-keyboard-response","75","2.0.0","351405","pz0xaadcw6s","panda","<b><font size=6>A pound of steel weighs more than a pound of feathers.</font></b>","m","Matter","Weight","T","F","F","true","",""
"","2245","html-keyboard-response","76","2.0.0","354154","pz0xaadcw6s","panda","<b><font size=6>Numbers are composed of matter.</font></b>","z","Matter","Mass","F","F","F","false","",""
"","4245","html-keyboard-response","77","2.0.0","358903","pz0xaadcw6s","panda","<b><font size=6>Atoms are the constituents of matter.</font></b>","m","Matter","Atom","T","T","T","false","",""
"","2679","html-keyboard-response","78","2.0.0","362084","pz0xaadcw6s","panda","<b><font size=6>Rocks are composed of matter.</font></b>","z","Matter","Mass","T","T","T","true","",""
"","3781","html-keyboard-response","79","2.0.0","366367","pz0xaadcw6s","panda","<b><font size=6>Atoms are visible to the naked eye.</font></b>","m","Matter","Atom","F","F","F","true","",""
"","1900","html-keyboard-response","80","2.0.0","368770","pz0xaadcw6s","panda","<b><font size=6>Steel is denser than foam.</font></b>","z","Matter","Density","T","T","T","true","",""
"","1609","html-keyboard-response","81","2.0.0","370883","pz0xaadcw6s","panda","<b><font size=6>A cold penny is denser than a hot penny.</font></b>","m","Matter","Density","F","T","T","false","",""
"","3519","html-keyboard-response","82","2.0.0","374904","pz0xaadcw6s","panda","<b><font size=6>Fire is composed of matter.</font></b>","z","Matter","Mass","T","F","F","false","",""
"","6371","html-keyboard-response","83","2.0.0","381777","pz0xaadcw6s","panda","<b><font size=6>A pound of steel weighs more than a ton of steel.</font></b>","z","Matter","Weight","F","F","F","false","",""
"","4720","html-keyboard-response","84","2.0.0","387001","pz0xaadcw6s","panda","<b><font size=6>Foam is denser than brick.</font></b>","z","Matter","Density","F","F","F","false","",""
"","2201","html-keyboard-response","85","2.0.0","389706","pz0xaadcw6s","panda","<b><font size=6>A liter of water weighs more than a liter of air.</font></b>","z","Matter","Weight","T","T","T","true","",""
"","7119","html-keyboard-response","86","2.0.0","397329","pz0xaadcw6s","panda","<b><font size=6>Atoms are mostly empty space.</font></b>","z","Matter","Atom","F","T","T","true","",""
"","3804","html-keyboard-response","87","2.0.0","401635","pz0xaadcw6s","panda","<b><font size=6>A grain of sand can be cut in half.</font></b>","z","Matter","Divisibility","F","T","T","true","",""
"","6222","html-keyboard-response","88","2.0.0","408360","pz0xaadcw6s","panda","<b><font size=6>Air is composed of matter.</font></b>","z","Matter","Mass","F","T","T","true","",""
"","null","html-keyboard-response","89","2.0.0","410565","pz0xaadcw6s","panda","<p><font-size=6>All the following statements are in category:</font></p><b><font size=10><font color=blue>Mechanics</font></b>","null","","","","","","","",""
"","11172","html-keyboard-response","90","2.0.0","422240","pz0xaadcw6s","panda","<b><font size=6>A moving bullet loses weight.</font></b>","z","Mechanics","Velocity","F","F","F","false","",""
"","3666","html-keyboard-response","91","2.0.0","426409","pz0xaadcw6s","panda","<b><font size=6>Constant acceleration requires constant force.</font></b>","z","Mechanics","Acceleration","T","T","T","true","",""
"","5109","html-keyboard-response","92","2.0.0","432022","pz0xaadcw6s","panda","<b><font size=6>Energy can be transferred from one object to another.</font></b>","z","Mechanics","Momentum","F","T","T","true","",""
"","4312","html-keyboard-response","93","2.0.0","436837","pz0xaadcw6s","panda","<b><font size=6>A moving bullet loses force.</font></b>","z","Mechanics","Velocity","T","F","F","false","",""
"","874","html-keyboard-response","94","2.0.0","438214","pz0xaadcw6s","panda","<b><font size=6>Constant speed requires constant acceleration.</font></b>","z","Mechanics","Acceleration","F","F","F","false","",""
"","826","html-keyboard-response","95","2.0.0","439544","pz0xaadcw6s","panda","<b><font size=6>Heavy balls fall through air faster than light balls.</font></b>","z","Mechanics","Gravity","T","F","F","false","",""
"","952","html-keyboard-response","96","2.0.0","440999","pz0xaadcw6s","panda","<b><font size=6>Forces can be balanced or unbalanced.</font></b>","z","Mechanics","Force","F","T","T","true","",""
"","1403","html-keyboard-response","97","2.0.0","442905","pz0xaadcw6s","panda","<b><font size=6>Forces can be transferred from one object to another.</font></b>","z","Mechanics","Momentum","T","F","F","false","",""
"","1452","html-keyboard-response","98","2.0.0","444860","pz0xaadcw6s","panda","<b><font size=6>Bright objects fall through air faster than dark objects.</font></b>","z","Mechanics","Gravity","F","F","F","false","",""
"","2688","html-keyboard-response","99","2.0.0","448051","pz0xaadcw6s","panda","<b><font size=6>Constant motion requires constant force.</font></b>","m","Mechanics","Acceleration","T","F","F","true","",""
"","1313","html-keyboard-response","100","2.0.0","449866","pz0xaadcw6s","panda","<b><font size=6>Forces can be male or female.</font></b>","m","Mechanics","Force","F","F","F","true","",""
"","2231","html-keyboard-response","101","2.0.0","452601","pz0xaadcw6s","panda","<b><font size=6>Anvils fall through air faster than feathers.</font></b>","z","Mechanics","Gravity","T","T","T","true","",""
"","2441","html-keyboard-response","102","2.0.0","455544","pz0xaadcw6s","panda","<b><font size=6>A moving bullet loses speed.</font></b>","m","Mechanics","Velocity","T","T","T","false","",""
"","1798","html-keyboard-response","103","2.0.0","457843","pz0xaadcw6s","panda","<b><font size=6>A moving bullet loses height.</font></b>","z","Mechanics","Velocity","F","T","T","true","",""
"","1534","html-keyboard-response","104","2.0.0","459883","pz0xaadcw6s","panda","<b><font size=6>Momentum can be transferred from one object to another.</font></b>","m","Mechanics","Momentum","T","T","T","false","",""
"","2788","html-keyboard-response","105","2.0.0","463174","pz0xaadcw6s","panda","<b><font size=6>Constant force can yield constant rest.</font></b>","z","Mechanics","Acceleration","F","T","T","true","",""
"","1073","html-keyboard-response","106","2.0.0","464750","pz0xaadcw6s","panda","<b><font size=6>Forces can be straight or curved.</font></b>","z","Mechanics","Force","T","F","F","false","",""
"","2733","html-keyboard-response","107","2.0.0","467986","pz0xaadcw6s","panda","<b><font size=6>Pointy objects fall through air faster than flat objects.</font></b>","z","Mechanics","Gravity","F","T","T","true","",""
"","2425","html-keyboard-response","108","2.0.0","470914","pz0xaadcw6s","panda","<b><font size=6>Color can be transferred from one object to another.</font></b>","z","Mechanics","Momentum","F","F","F","false","",""
"","1650","html-keyboard-response","109","2.0.0","473067","pz0xaadcw6s","panda","<b><font size=6>Forces can be strong or weak.</font></b>","z","Mechanics","Force","T","T","T","true","",""
"","15913","survey-text","110","2.0.0","489492","pz0xaadcw6s","panda","","{""reflection1"":""Something to do with attention or knowledge""}","","","","","","","Something to do with attention or knowledge",""
"","3182","survey-text","111","2.0.0","492679","pz0xaadcw6s","panda","","{""reflection2"":""no""}","","","","","","","","no"
